t,gx,gy,gz,ax,ay,az
-3.495131118915863087e-16,-6.389776357827475772e-03,-4.259850905218317760e-03,-3.514376996805111675e-02,8.858513189448441238e+00,6.187050359712230607e-01,4.211031175059951615e+00
4.955445544554106831e-03,-8.519701810436635520e-03,-1.064962726304579440e-03,-2.555910543130990309e-02,8.894484412470024637e+00,6.019184652278177783e-01,4.215827338129496837e+00
9.910891089108564075e-03,-1.064962726304579353e-02,-7.454739084132055646e-03,-2.023429179978700893e-02,8.956834532374100988e+00,5.923261390887289979e-01,4.249400479616307180e+00
1.486633663366302045e-02,-9.584664536741213658e-03,-8.519701810436635520e-03,-9.584664536741213658e-03,8.908872901678657641e+00,6.211031175059952281e-01,4.107913669064748419e+00
1.982178217821747510e-02,-1.277955271565495154e-02,-6.389776357827475772e-03,2.129925452609158880e-03,8.846522781774579514e+00,5.947242206235011652e-01,4.062350119904076351e+00
2.477722772277193147e-02,-1.277955271565495154e-02,1.064962726304579440e-03,1.171458998935037341e-02,8.853717026378896904e+00,4.940047961630695261e-01,4.035971223021582510e+00
2.973267326732638785e-02,-1.810436634717784918e-02,8.519701810436635520e-03,1.597444089456868943e-02,8.923261390887290645e+00,4.556354916067146266e-01,4.155875299760191766e+00
3.468811881188084423e-02,-1.810436634717784918e-02,6.389776357827475772e-03,1.277955271565495154e-02,8.940047961630694928e+00,4.724220623501199090e-01,4.199040767386090778e+00
3.964356435643530407e-02,-2.023429179978700893e-02,1.064962726304579440e-03,1.597444089456868943e-02,8.870503597122302963e+00,4.820143884892086339e-01,4.218225419664269005e+00
4.459900990098976392e-02,-1.703940362087327104e-02,-2.129925452609158880e-03,2.342917997870074681e-02,8.901678657074340251e+00,4.436450839328537343e-01,4.201438848920862945e+00
4.955445544554421683e-02,-1.916932907348242732e-02,-5.324813631522896766e-03,3.727369542066027996e-02,8.940047961630694928e+00,3.717026378896882699e-01,4.141486810551558762e+00
5.450990099009866974e-02,-2.236421725239616520e-02,-7.454739084132055646e-03,4.259850905218317413e-02,8.901678657074340251e+00,3.069544364508393075e-01,4.091127098321343247e+00
5.946534653465312958e-02,-2.023429179978700893e-02,-2.129925452609158880e-03,3.620873269435569836e-02,8.918465227817746310e+00,2.541966426858512929e-01,4.062350119904076351e+00
6.442079207920758943e-02,-2.342917997870074681e-02,3.194888178913737886e-03,2.981895633652822258e-02,8.916067146282973255e+00,2.661870503597122406e-01,4.086330935251798913e+00
6.937623762376203540e-02,-2.449414270500532495e-02,7.454739084132055646e-03,2.981895633652822258e-02,8.906474820143884585e+00,3.021582733812949728e-01,4.098321342925659749e+00
7.433168316831649525e-02,-2.236421725239616520e-02,9.584664536741213658e-03,3.301384451544196047e-02,8.906474820143884585e+00,2.853717026378896904e-01,4.196642685851318610e+00
7.928712871287095509e-02,-2.023429179978700893e-02,7.454739084132055646e-03,4.046858359957401785e-02,8.911270983213428920e+00,2.158273381294963933e-01,4.227817745803357674e+00
8.424257425742541494e-02,-1.810436634717784918e-02,2.129925452609158880e-03,4.366347177848775574e-02,8.908872901678657641e+00,1.294964028776978415e-01,4.215827338129496837e+00
8.919801980197987479e-02,-1.810436634717784918e-02,1.064962726304579440e-03,4.153354632587859252e-02,8.868105515587529908e+00,5.515587529976018893e-02,4.165467625899280435e+00
9.415346534653432076e-02,-2.023429179978700893e-02,1.064962726304579440e-03,3.301384451544196047e-02,8.836930455635490844e+00,2.398081534772182263e-02,4.165467625899280435e+00
9.910891089108878060e-02,-1.810436634717784918e-02,2.129925452609158880e-03,2.662406815761448470e-02,8.884892086330935967e+00,-1.918465227817745672e-02,4.148681055155875264e+00
1.040643564356432405e-01,-1.490947816826411129e-02,2.129925452609158880e-03,1.810436634717784918e-02,8.952038369304556653e+00,-5.515587529976018893e-02,4.182254196642685606e+00
1.090198019801976864e-01,-1.171458998935037341e-02,2.129925452609158880e-03,1.171458998935037341e-02,8.971223021582733992e+00,-1.247002398081534791e-01,4.208633093525179447e+00
1.139752475247521463e-01,-1.064962726304579353e-02,-3.194888178913737886e-03,3.194888178913737886e-03,9.009592326139088669e+00,-9.832134292565947176e-02,4.083932853717026745e+00
1.189306930693066061e-01,-1.384451544195953142e-02,-4.259850905218317760e-03,-7.454739084132055646e-03,8.944844124700239263e+00,-7.434052757793764565e-02,4.134292565947242259e+00
1.238861386138610660e-01,-8.519701810436635520e-03,0.000000000000000000e+00,-1.490947816826411129e-02,8.916067146282973255e+00,-8.633093525179856564e-02,4.067146282973620686e+00
1.288415841584155119e-01,-6.389776357827475772e-03,4.259850905218317760e-03,-2.449414270500532495e-02,8.916067146282973255e+00,-1.390887290167865664e-01,4.071942446043165909e+00
1.337970297029699718e-01,1.064962726304579440e-03,1.064962726304579353e-02,-3.194888178913737886e-02,8.940047961630694928e+00,-8.633093525179856564e-02,4.062350119904076351e+00
1.387524752475244039e-01,3.194888178913737886e-03,1.277955271565495154e-02,-3.940362087326943624e-02,9.011990407673861725e+00,-4.796163069544364180e-03,4.088729016786571080e+00
1.437079207920788637e-01,9.584664536741213658e-03,1.171458998935037341e-02,-3.407880724174654208e-02,9.038369304556354678e+00,5.275779376498800771e-02,4.110311750599520586e+00
1.486633663366333236e-01,2.023429179978700893e-02,1.703940362087327104e-02,-2.875399361022364098e-02,9.043165467625899012e+00,0.000000000000000000e+00,3.952038369304556209e+00
1.536188118811877834e-01,1.703940362087327104e-02,2.449414270500532495e-02,-4.259850905218317413e-02,9.026378896882494729e+00,-1.318944844124700366e-01,3.968824940047961825e+00
1.585742574257422433e-01,1.490947816826411129e-02,3.088391906283280072e-02,-6.283280085197018305e-02,8.937649880095923649e+00,-7.194244604316546443e-02,4.023980815347721673e+00
1.635297029702967031e-01,2.023429179978700893e-02,3.620873269435569836e-02,-7.880724174653887248e-02,8.827338129496402175e+00,7.673860911270982688e-02,4.153477218225419598e+00
1.684851485148511629e-01,2.768903088391906284e-02,3.833865814696485463e-02,-7.880724174653887248e-02,8.707434052757793808e+00,1.822541966426858562e-01,4.136690647482014427e+00
1.734405940594056228e-01,2.236421725239616520e-02,4.259850905218317413e-02,-7.454739084132055993e-02,8.800959232613909222e+00,2.158273381294963933e-01,4.359712230215827766e+00
1.783960396039600826e-01,2.342917997870074681e-02,3.514376996805111675e-02,-7.348242811501597138e-02,8.906474820143884585e+00,1.990407673860911386e-01,4.438848920863309289e+00
1.833514851485145147e-01,1.916932907348242732e-02,2.023429179978700893e-02,-8.093716719914803570e-02,8.872901678657074243e+00,2.134292565947242259e-01,4.398081534772182444e+00
1.883069306930689746e-01,1.277955271565495154e-02,1.171458998935037341e-02,-1.033013844515442009e-01,8.872901678657074243e+00,3.045563549160671402e-01,4.306954436450839196e+00
1.932623762376234344e-01,-4.259850905218317760e-03,1.064962726304579440e-03,-1.171458998935037271e-01,8.697841726618705138e+00,5.059952038369304184e-01,4.388489208633093774e+00
1.982178217821778943e-01,-2.129925452609158880e-03,-4.259850905218317760e-03,-1.043663471778487756e-01,8.697841726618705138e+00,6.570743405275779603e-01,4.347721822541966041e+00
2.031732673267323541e-01,4.259850905218317760e-03,-7.454739084132055646e-03,-7.667731629392970927e-02,8.774580335731414493e+00,6.570743405275779603e-01,4.172661870503596937e+00
2.081287128712868140e-01,0.000000000000000000e+00,-1.064962726304579353e-02,-5.963791267305644517e-02,8.839328537170263900e+00,5.803357314148680501e-01,4.175059952038369104e+00
2.130841584158412738e-01,5.324813631522896766e-03,-4.259850905218317760e-03,-4.898828541001064990e-02,8.808153477218224836e+00,5.491606714628297636e-01,4.199040767386090778e+00
2.180396039603957059e-01,1.916932907348242732e-02,6.389776357827475772e-03,-3.940362087326943624e-02,8.827338129496402175e+00,5.659472422062350461e-01,4.366906474820144268e+00
2.229950495049501658e-01,2.129925452609158706e-02,-7.454739084132055646e-03,-3.194888178913737886e-02,8.860911270983214294e+00,5.779376498800958828e-01,4.282973621103117523e+00
2.279504950495046256e-01,7.454739084132055646e-03,-2.768903088391906284e-02,-2.129925452609158706e-02,8.966426858513189657e+00,4.892086330935251914e-01,4.247002398081535013e+00
2.329059405940590854e-01,1.171458998935037341e-02,-2.768903088391906284e-02,-1.703940362087327104e-02,9.045563549160672068e+00,3.501199040767385973e-01,4.023980815347721673e+00
2.378613861386135453e-01,5.324813631522896766e-03,-1.916932907348242732e-02,-2.555910543130990309e-02,8.990407673860911331e+00,2.997601918465228055e-01,4.038369304556354678e+00
2.428168316831680051e-01,2.129925452609158880e-03,-1.597444089456868943e-02,-3.514376996805111675e-02,8.848920863309352569e+00,4.196642685851318944e-01,3.884892086330935079e+00
2.477722772277224650e-01,-6.389776357827475772e-03,-2.129925452609158880e-03,-2.768903088391906284e-02,8.829736211031175230e+00,5.155875299760191988e-01,3.887290167865707247e+00
2.527277227722769526e-01,0.000000000000000000e+00,1.171458998935037341e-02,-1.277955271565495154e-02,8.997601918465226944e+00,3.645083932853717124e-01,3.995203836930455665e+00
2.576831683168314124e-01,1.277955271565495154e-02,1.916932907348242732e-02,-5.324813631522896766e-03,9.107913669064748419e+00,1.558752997601918489e-01,3.911270983213429364e+00
2.626386138613858723e-01,6.389776357827475772e-03,3.088391906283280072e-02,-1.916932907348242732e-02,9.033573141486810343e+00,2.062350119904076684e-01,4.088729016786571080e+00
2.675940594059403321e-01,9.584664536741213658e-03,2.981895633652822258e-02,-2.981895633652822258e-02,8.863309352517985573e+00,3.333333333333333148e-01,4.211031175059951615e+00
2.725495049504947920e-01,1.171458998935037341e-02,2.555910543130990309e-02,-2.342917997870074681e-02,8.949640287769783598e+00,2.709832134292565753e-01,4.187050359712229941e+00
2.775049504950491963e-01,1.064962726304579440e-03,3.088391906283280072e-02,-3.088391906283280072e-02,8.889688249400480302e+00,2.350119904076738708e-01,4.247002398081535013e+00
2.824603960396036562e-01,-7.454739084132055646e-03,2.662406815761448470e-02,-4.579339723109691201e-02,8.700239808153476417e+00,3.381294964028777050e-01,4.553956834532374209e+00
2.874158415841581160e-01,-3.194888178913737886e-03,8.519701810436635520e-03,-4.046858359957401785e-02,8.633093525179855732e+00,4.196642685851318944e-01,4.491606714628296970e+00
2.923712871287125759e-01,-2.129925452609158880e-03,-1.064962726304579440e-03,-2.981895633652822258e-02,8.697841726618705138e+00,4.316546762589927866e-01,4.362110311750599934e+00
2.973267326732670357e-01,-6.389776357827475772e-03,0.000000000000000000e+00,-3.301384451544196047e-02,8.772182254196643214e+00,4.196642685851318944e-01,4.299760191846522694e+00
3.022821782178214955e-01,-1.490947816826411129e-02,-7.454739084132055646e-03,-3.514376996805111675e-02,8.760191846522781489e+00,3.836930455635491621e-01,4.431654676258992787e+00
3.072376237623759554e-01,-1.064962726304579353e-02,-1.810436634717784918e-02,-3.407880724174654208e-02,8.875299760191847298e+00,3.621103117505995450e-01,4.287769784172661858e+00
3.121930693069304152e-01,-6.389776357827475772e-03,-2.129925452609158706e-02,-3.727369542066027996e-02,8.925659472422061924e+00,3.932853717026378870e-01,4.254196642685851515e+00
3.171485148514848751e-01,5.324813631522896766e-03,-2.129925452609158706e-02,-3.088391906283280072e-02,8.877697841726618577e+00,4.916067146282973588e-01,4.179856115107913439e+00
3.221039603960393349e-01,5.324813631522896766e-03,-2.342917997870074681e-02,-1.490947816826411129e-02,8.829736211031175230e+00,5.467625899280575963e-01,4.093525179856115415e+00
3.270594059405937948e-01,4.259850905218317760e-03,-1.916932907348242732e-02,-2.129925452609158880e-03,8.896882494004795916e+00,4.628297362110311841e-01,4.016786570743405171e+00
3.320148514851482546e-01,0.000000000000000000e+00,-1.171458998935037341e-02,-2.129925452609158880e-03,8.952038369304556653e+00,4.028776978417266119e-01,3.940047961630695372e+00
3.369702970297027145e-01,-8.519701810436635520e-03,-7.454739084132055646e-03,-1.277955271565495154e-02,8.997601918465226944e+00,4.052757793764987793e-01,4.055155875299759849e+00
3.419257425742571743e-01,-9.584664536741213658e-03,-6.389776357827475772e-03,-2.023429179978700893e-02,9.019184652278177339e+00,5.299760191846523139e-01,4.059952038369304184e+00
3.468811881188116342e-01,-1.703940362087327104e-02,-7.454739084132055646e-03,-1.277955271565495154e-02,8.961630695443645322e+00,5.779376498800958828e-01,4.074340527577938076e+00
3.518366336633660940e-01,-1.810436634717784918e-02,-3.194888178913737886e-03,-1.064962726304579440e-03,8.884892086330935967e+00,5.227817745803357008e-01,4.014388489208633004e+00
3.567920792079205539e-01,-1.916932907348242732e-02,4.259850905218317760e-03,8.519701810436635520e-03,8.918465227817746310e+00,4.580335731414867939e-01,4.062350119904076351e+00
3.617475247524749582e-01,-1.490947816826411129e-02,9.584664536741213658e-03,1.064962726304579353e-02,8.844124700239808234e+00,4.652278177458033515e-01,4.067146282973620686e+00
3.667029702970294180e-01,-1.810436634717784918e-02,1.490947816826411129e-02,8.519701810436635520e-03,8.820143884892086561e+00,5.107913669064748641e-01,4.213429256594723782e+00
3.716584158415838779e-01,-1.810436634717784918e-02,1.171458998935037341e-02,1.384451544195953142e-02,8.832134292565946510e+00,5.707434052757793808e-01,4.280575539568345356e+00
3.766138613861383377e-01,-2.236421725239616520e-02,5.324813631522896766e-03,1.703940362087327104e-02,8.889688249400480302e+00,5.155875299760191988e-01,4.282973621103117523e+00
3.815693069306927976e-01,-2.129925452609158706e-02,-3.194888178913737886e-03,2.555910543130990309e-02,8.906474820143884585e+00,4.292565947242206192e-01,4.251798561151079348e+00
3.865247524752472574e-01,-2.023429179978700893e-02,-9.584664536741213658e-03,2.662406815761448470e-02,8.892086330935251581e+00,4.076738609112710021e-01,4.175059952038369104e+00
3.914801980198017173e-01,-2.023429179978700893e-02,-6.389776357827475772e-03,2.555910543130990309e-02,8.844124700239808234e+00,4.436450839328537343e-01,4.107913669064748419e+00
3.964356435643561771e-01,-1.916932907348242732e-02,1.064962726304579440e-03,2.662406815761448470e-02,8.803357314148680501e+00,4.820143884892086339e-01,4.081534772182254578e+00
4.013910891089106370e-01,-2.023429179978700893e-02,8.519701810436635520e-03,3.407880724174654208e-02,8.839328537170263900e+00,4.412470023980815115e-01,4.179856115107913439e+00
4.063465346534650968e-01,-2.129925452609158706e-02,8.519701810436635520e-03,3.727369542066027996e-02,8.935251798561150594e+00,3.764988009592326046e-01,4.206235011990407280e+00
4.113019801980195567e-01,-2.236421725239616520e-02,4.259850905218317760e-03,3.727369542066027996e-02,8.961630695443645322e+00,3.501199040767385973e-01,4.266187050359712352e+00
4.162574257425740165e-01,-2.662406815761448470e-02,-1.064962726304579440e-03,3.833865814696485463e-02,8.949640287769783598e+00,3.357314148681055377e-01,4.225419664268585507e+00
4.212128712871284764e-01,-2.662406815761448470e-02,-5.324813631522896766e-03,3.833865814696485463e-02,8.896882494004795916e+00,3.189448441247002553e-01,4.167865707434052602e+00
4.261683168316829362e-01,-2.236421725239616520e-02,-2.129925452609158880e-03,4.153354632587859252e-02,8.832134292565946510e+00,2.853717026378896904e-01,4.107913669064748419e+00
4.311237623762373961e-01,-2.129925452609158706e-02,4.259850905218317760e-03,4.259850905218317413e-02,8.822541966426857840e+00,2.062350119904076684e-01,4.131894484412470092e+00
4.360792079207918004e-01,-1.916932907348242732e-02,1.064962726304579353e-02,3.940362087326943624e-02,8.865707434052758629e+00,1.223021582733812979e-01,4.187050359712229941e+00
4.410346534653462602e-01,-1.703940362087327104e-02,1.277955271565495154e-02,3.194888178913737886e-02,8.940047961630694928e+00,7.673860911270982688e-02,4.292565947242206192e+00
4.459900990099007201e-01,-1.703940362087327104e-02,6.389776357827475772e-03,2.236421725239616520e-02,8.930455635491606259e+00,4.076738609112710160e-02,4.306954436450839196e+00
4.509455445544551799e-01,-1.490947816826411129e-02,-4.259850905218317760e-03,1.597444089456868943e-02,8.935251798561150594e+00,-7.194244604316547137e-03,4.268585131894484519e+00
4.559009900990096398e-01,-1.703940362087327104e-02,-1.171458998935037341e-02,8.519701810436635520e-03,8.906474820143884585e+00,-1.918465227817745672e-02,4.208633093525179447e+00
4.608564356435640996e-01,-1.384451544195953142e-02,-1.064962726304579353e-02,-4.259850905218317760e-03,8.894484412470024637e+00,-2.398081534772182263e-02,4.098321342925659749e+00
4.658118811881185595e-01,-1.384451544195953142e-02,-5.324813631522896766e-03,-1.597444089456868943e-02,8.884892086330935967e+00,-2.158273381294964141e-02,4.045563549160671180e+00
4.707673267326730193e-01,-1.384451544195953142e-02,1.064962726304579440e-03,-2.875399361022364098e-02,8.863309352517985573e+00,3.117505995203836977e-02,4.107913669064748419e+00
4.757227722772274792e-01,-1.277955271565495154e-02,7.454739084132055646e-03,-3.833865814696485463e-02,8.865707434052758629e+00,1.007194244604316530e-01,4.179856115107913439e+00
4.806782178217819390e-01,-1.490947816826411129e-02,6.389776357827475772e-03,-4.366347177848775574e-02,8.911270983213428920e+00,1.918465227817745811e-01,4.242206235011990678e+00
4.856336633663363989e-01,-1.277955271565495154e-02,2.129925452609158880e-03,-5.005324813631523151e-02,8.908872901678657641e+00,2.829736211031175230e-01,4.273381294964028854e+00
4.905891089108908587e-01,-1.171458998935037341e-02,-5.324813631522896766e-03,-5.324813631522896940e-02,8.844124700239808234e+00,3.165467625899280324e-01,4.235011990407674176e+00
4.955445544554453186e-01,-1.171458998935037341e-02,-9.584664536741213658e-03,-4.579339723109691201e-02,8.880095923261391633e+00,3.477218225419664299e-01,4.184652278177457774e+00
5.004999999999997229e-01,-1.277955271565495154e-02,-1.277955271565495154e-02,-4.153354632587859252e-02,8.935251798561150594e+00,3.285371702637889801e-01,4.105515587529976251e+00
5.054554455445542382e-01,-1.277955271565495154e-02,-9.584664536741213658e-03,-4.472843450479233041e-02,9.035971223021583398e+00,3.669064748201438797e-01,4.011990407673860837e+00
5.104108910891086426e-01,-1.384451544195953142e-02,-5.324813631522896766e-03,-5.111821086261980618e-02,9.031175059952039064e+00,4.364508393285371768e-01,4.023980815347721673e+00
5.153663366336631579e-01,-1.597444089456868943e-02,0.000000000000000000e+00,-5.431309904153354406e-02,8.959232613908872267e+00,5.299760191846523139e-01,4.026378896882493841e+00
5.203217821782175623e-01,-2.129925452609158706e-02,7.454739084132055646e-03,-4.898828541001064990e-02,8.916067146282973255e+00,6.306954436450838974e-01,4.028776978417266008e+00
5.252772277227720776e-01,-2.768903088391906284e-02,9.584664536741213658e-03,-4.579339723109691201e-02,8.959232613908872267e+00,7.410071942446042614e-01,3.935251798561151038e+00
5.302326732673264820e-01,-5.537806176783812567e-02,6.389776357827475772e-03,-5.005324813631523151e-02,8.964028776978416602e+00,8.705035971223021862e-01,3.918465227817745866e+00
5.351881188118809973e-01,-6.922257720979765883e-02,1.064962726304579353e-02,-4.472843450479233041e-02,8.997601918465226944e+00,9.904076738609112196e-01,3.925659472422062368e+00
5.401435643564354017e-01,-6.496272630457934627e-02,2.981895633652822258e-02,-2.555910543130990309e-02,8.968824940047960936e+00,1.095923261390887360e+00,3.925659472422062368e+00
5.450990099009899170e-01,-6.496272630457934627e-02,4.259850905218317413e-02,2.129925452609158880e-03,8.937649880095923649e+00,1.182254196642685828e+00,4.170263788968824770e+00
5.500544554455443214e-01,-5.750798722044728195e-02,4.153354632587859252e-02,4.153354632587859252e-02,8.800959232613909222e+00,1.206235011990407724e+00,4.184652278177457774e+00
5.550099009900987257e-01,-5.218317358892438779e-02,3.833865814696485463e-02,9.904153354632587447e-02,8.767386091127098879e+00,1.002398081534772167e+00,4.242206235011990678e+00
5.599653465346532411e-01,-3.727369542066027996e-02,4.366347177848775574e-02,1.427050053248136441e-01,8.923261390887290645e+00,6.354916067146283432e-01,4.199040767386090778e+00
5.649207920792076454e-01,-3.727369542066027996e-02,4.046858359957401785e-02,1.373801916932907430e-01,8.995203836930455665e+00,4.052757793764987793e-01,4.333333333333333037e+00
5.698762376237621607e-01,-4.685835995740149362e-02,2.449414270500532495e-02,1.011714589989350377e-01,8.918465227817746310e+00,4.988009592326139163e-01,4.261390887290168017e+00
5.748316831683165651e-01,-6.709265175718849561e-02,1.384451544195953142e-02,7.561235356762513460e-02,8.657074340527577405e+00,7.434052757793765398e-01,4.177458033573141272e+00
5.797871287128710804e-01,-8.200212992545261037e-02,1.810436634717784918e-02,7.987220447284344715e-02,8.422062350119903229e+00,8.896882494004796360e-01,4.321342925659472201e+00
5.847425742574254848e-01,-7.454739084132055993e-02,2.129925452609158706e-02,1.096911608093716767e-01,8.498800959232614360e+00,8.465227817745802907e-01,4.232613908872902009e+00
5.896980198019800001e-01,-7.348242811501597138e-02,3.407880724174654208e-02,1.395101171458998923e-01,8.621103117505995783e+00,7.098321342925659749e-01,4.537170263788969038e+00
5.946534653465344045e-01,-6.389776357827475772e-02,2.768903088391906284e-02,1.490947816826411199e-01,8.676258992805754744e+00,6.163069544364508934e-01,4.760191846522781489e+00
5.996089108910889198e-01,-5.644302449414270728e-02,4.259850905218317760e-03,1.512247071352502692e-01,8.729016786570744202e+00,6.618705035971222950e-01,4.748201438848920652e+00
6.045643564356433242e-01,-6.815761448349308416e-02,-2.129925452609158880e-03,1.554845580404685956e-01,8.508393285371703030e+00,8.705035971223021862e-01,4.853717026378896904e+00
6.095198019801978395e-01,-1.075612353567625135e-01,-2.129925452609158706e-02,1.874334398296059745e-01,8.390887290167865942e+00,8.345323741007194540e-01,5.345323741007193874e+00
6.144752475247522439e-01,-1.107561235356762513e-01,-8.732694355697551147e-02,2.247071352502662545e-01,8.764988009592325824e+00,2.613908872901678504e-01,4.992805755395683498e+00
6.194306930693067592e-01,-1.171458998935037271e-01,-1.256656017039403661e-01,2.087326943556975511e-01,9.105515587529975363e+00,-1.774580335731414937e-01,4.347721822541966041e+00
6.243861386138611635e-01,-1.331203407880724165e-01,-1.246006389776357776e-01,1.661341853035143701e-01,9.004796163069544335e+00,-5.755395683453237710e-02,4.309352517985611364e+00
6.293415841584156789e-01,-1.182108626198083018e-01,-1.331203407880724165e-01,1.629392971246006461e-01,8.810551558752997892e+00,8.153477218225420320e-02,3.803357314148680945e+00
6.342970297029700832e-01,-1.064962726304579388e-01,-1.192758253461128903e-01,1.895633652822151238e-01,9.215827338129496837e+00,-2.446043165467625957e-01,3.549160671462829875e+00
6.392524752475244876e-01,-8.945686900958466081e-02,-6.922257720979765883e-02,1.778487752928647470e-01,9.290167865707434913e+00,-2.805755395683453002e-01,3.462829736211030962e+00
6.442079207920790029e-01,-1.054313099041533502e-01,-5.750798722044728195e-02,1.576144834930777450e-01,8.860911270983214294e+00,-2.230215827338129508e-01,3.968824940047961825e+00
6.491633663366334073e-01,-7.135250266240682204e-02,-6.815761448349308416e-02,1.586794462193823196e-01,9.112709832134292753e+00,-4.292565947242206192e-01,3.541966426858513373e+00
6.541188118811879226e-01,-5.218317358892438779e-02,-3.514376996805111675e-02,1.416400425985090417e-01,9.189448441247002108e+00,-5.683453237410072134e-01,3.458033573141486627e+00
6.590742574257423270e-01,-5.111821086261980618e-02,-6.389776357827475772e-03,1.086261980830670881e-01,9.088729016786571080e+00,-4.556354916067146266e-01,3.700239808153477306e+00
6.640297029702968423e-01,-4.792332268370606829e-02,8.519701810436635520e-03,9.052183173588924936e-02,9.059952038369305072e+00,-3.237410071942445899e-01,3.997601918465227833e+00
6.689851485148512467e-01,-3.727369542066027996e-02,1.171458998935037341e-02,8.519701810436634826e-02,8.923261390887290645e+00,-3.669064748201438797e-01,4.172661870503596937e+00
6.739405940594057620e-01,-3.088391906283280072e-02,2.129925452609158880e-03,7.454739084132055993e-02,8.985611510791366996e+00,-4.772182254196642437e-01,4.050359712230215514e+00
6.788960396039601664e-01,-3.514376996805111675e-02,9.584664536741213658e-03,4.472843450479233041e-02,8.964028776978416602e+00,-4.220623501199040617e-01,4.314148681055155699e+00
6.838514851485146817e-01,-2.555910543130990309e-02,6.389776357827475772e-03,2.662406815761448470e-02,8.896882494004795916e+00,-2.158273381294963933e-01,4.369304556354916436e+00
6.888069306930690860e-01,-3.301384451544196047e-02,-1.490947816826411129e-02,2.023429179978700893e-02,8.988009592326138275e+00,-2.062350119904076684e-01,4.381294964028777272e+00
6.937623762376236014e-01,-3.514376996805111675e-02,-2.449414270500532495e-02,2.129925452609158880e-03,8.872901678657074243e+00,-1.438848920863309289e-01,4.067146282973620686e+00
6.987178217821780057e-01,-5.218317358892438779e-02,-1.810436634717784918e-02,-1.384451544195953142e-02,8.628297362110311397e+00,1.199040767386091132e-02,4.206235011990407280e+00
7.036732673267325211e-01,-4.792332268370606829e-02,-1.384451544195953142e-02,-1.171458998935037341e-02,8.803357314148680501e+00,1.031175059952038342e-01,4.285371702637889690e+00
7.086287128712869254e-01,-4.579339723109691201e-02,-1.490947816826411129e-02,-7.454739084132055646e-03,9.064748201438849406e+00,1.199040767386091132e-02,4.280575539568345356e+00
7.135841584158414408e-01,-5.111821086261980618e-02,-3.301384451544196047e-02,-1.703940362087327104e-02,9.225419664268585507e+00,-2.158273381294963933e-01,3.954436450839328376e+00
7.185396039603958451e-01,-5.537806176783812567e-02,-3.088391906283280072e-02,-6.283280085197018305e-02,9.340527577937649539e+00,-3.021582733812949728e-01,3.582733812949640217e+00
7.234950495049502495e-01,-5.431309904153354406e-02,6.389776357827475772e-03,-1.086261980830670881e-01,8.851318944844123848e+00,-7.194244604316547137e-03,3.599520383693045389e+00
7.284504950495047648e-01,-4.046858359957401785e-02,3.514376996805111675e-02,-1.139510117145899892e-01,8.712230215827338142e+00,2.541966426858512929e-01,3.671462829736210853e+00
7.334059405940591692e-01,-3.727369542066027996e-02,5.431309904153354406e-02,-9.797657082002129980e-02,8.772182254196643214e+00,1.726618705035971313e-01,3.709832134292565975e+00
7.383613861386136845e-01,-3.940362087326943624e-02,7.561235356762513460e-02,-1.033013844515442009e-01,8.923261390887290645e+00,-1.294964028776978415e-01,3.822541966426858728e+00
7.433168316831680889e-01,-4.366347177848775574e-02,1.022364217252396124e-01,-1.448349307774227934e-01,8.992805755395682610e+00,-1.918465227817745811e-01,4.237410071942446343e+00
7.482722772277226042e-01,-5.218317358892438779e-02,9.797657082002129980e-02,-1.810436634717784987e-01,8.822541966426857840e+00,1.510791366906474864e-01,4.959232613908873155e+00
7.532277227722770085e-01,-4.685835995740149362e-02,4.153354632587859252e-02,-1.693290734824281218e-01,8.549160671462828986e+00,5.851318944844124958e-01,5.076738609112710243e+00
7.581831683168315239e-01,-4.259850905218317413e-02,-9.584664536741213658e-03,-1.171458998935037271e-01,8.577937649880096771e+00,6.858513189448440794e-01,4.906474820143884585e+00
7.631386138613859282e-01,-4.366347177848775574e-02,-4.046858359957401785e-02,-5.963791267305644517e-02,8.757793764988010210e+00,5.731414868105515481e-01,4.618705035971222728e+00
7.680940594059404436e-01,-5.750798722044728195e-02,-5.537806176783812567e-02,-2.662406815761448470e-02,8.853717026378896904e+00,5.179856115107913661e-01,4.532374100719424703e+00
7.730495049504948479e-01,-6.389776357827475772e-02,-7.135250266240682204e-02,-2.129925452609158880e-03,8.724220623501199867e+00,5.467625899280575963e-01,4.438848920863309289e+00
7.780049504950493633e-01,-5.644302449414270728e-02,-8.200212992545261037e-02,2.981895633652822258e-02,8.848920863309352569e+00,4.388489208633093441e-01,4.136690647482014427e+00
7.829603960396037676e-01,-4.792332268370606829e-02,-8.093716719914803570e-02,3.833865814696485463e-02,9.081534772182253690e+00,2.877697841726618577e-01,3.836930455635491732e+00
7.879158415841582830e-01,-4.472843450479233041e-02,-6.283280085197018305e-02,1.810436634717784918e-02,9.076738609112709355e+00,2.949640287769784153e-01,3.678657074340527799e+00
7.928712871287126873e-01,-3.407880724174654208e-02,-3.407880724174654208e-02,8.519701810436635520e-03,9.043165467625899012e+00,4.268585131894484519e-01,3.796163069544364443e+00
7.978267326732670917e-01,-1.810436634717784918e-02,-3.301384451544196047e-02,2.662406815761448470e-02,9.434052757793764954e+00,3.405275779376498724e-01,3.652278177458033515e+00
8.027821782178216070e-01,-6.389776357827475772e-03,-1.064962726304579353e-02,3.407880724174654208e-02,9.328537170263789591e+00,2.757793764988009655e-01,3.206235011990407724e+00
8.077376237623760113e-01,-6.389776357827475772e-03,5.218317358892438779e-02,2.342917997870074681e-02,9.004796163069544335e+00,2.230215827338129508e-01,3.211031175059952059e+00
8.126930693069305267e-01,-6.389776357827475772e-03,1.086261980830670881e-01,9.584664536741213658e-03,8.896882494004795916e+00,0.000000000000000000e+00,3.438848920863309289e+00
8.176485148514849310e-01,-1.916932907348242732e-02,1.363152289669861683e-01,-2.236421725239616520e-02,8.968824940047960936e+00,-1.990407673860911386e-01,3.836930455635491732e+00
8.226039603960394464e-01,-2.662406815761448470e-02,1.341853035143769912e-01,-6.283280085197018305e-02,8.976019184652278327e+00,-3.165467625899280324e-01,4.105515587529976251e+00
8.275594059405938507e-01,-1.597444089456868943e-02,1.277955271565495154e-01,-8.945686900958466081e-02,9.004796163069544335e+00,-3.597122302158273222e-01,4.335731414868105205e+00
8.325148514851483661e-01,2.129925452609158880e-03,1.182108626198083018e-01,-1.128860489882854146e-01,9.151079136690647431e+00,-3.357314148681055377e-01,4.534772182254196871e+00
8.374702970297027704e-01,5.324813631522896766e-03,9.584664536741213658e-02,-1.405750798722044670e-01,9.206235011990408168e+00,-2.206235011990407557e-01,4.748201438848920652e+00
8.424257425742572858e-01,1.384451544195953142e-02,6.922257720979765883e-02,-1.490947816826411199e-01,9.294964028776979248e+00,-1.966426858513189435e-01,4.719424460431654644e+00
8.473811881188116901e-01,2.555910543130990309e-02,5.324813631522896940e-02,-1.522896698615548439e-01,9.467625899280575297e+00,-2.517985611510791255e-01,4.369304556354916436e+00
8.523366336633662055e-01,1.810436634717784918e-02,5.750798722044728195e-02,-1.640042598509052207e-01,9.964028776978416602e+00,-2.877697841726618577e-01,4.525179856115108201e+00
8.572920792079206098e-01,1.171458998935037341e-02,3.514376996805111675e-02,-1.831735889243876481e-01,9.839328537170263900e+00,-2.134292565947242259e-01,3.988009592326139163e+00
8.622475247524751252e-01,-6.389776357827475772e-03,6.389776357827475772e-02,-1.948881789137380249e-01,9.817745803357313505e+00,-2.805755395683453002e-01,4.002398081534772167e+00
8.672029702970295295e-01,6.389776357827475772e-03,1.075612353567625135e-01,-2.108626198083067005e-01,9.666666666666666075e+00,-1.678657074340527688e-01,4.177458033573141272e+00
8.721584158415839338e-01,4.259850905218317760e-03,8.413205537806177359e-02,-2.129925452609158776e-01,9.208633093525179447e+00,7.673860911270982688e-02,3.952038369304556209e+00
8.771138613861384492e-01,9.584664536741213658e-03,8.200212992545261037e-02,-1.991480298189563236e-01,9.278177458033573188e+00,1.247002398081534791e-01,3.580335731414868050e+00
8.820693069306928535e-01,1.916932907348242732e-02,1.214057507987220397e-01,-1.927582534611288478e-01,9.661870503597121740e+00,0.000000000000000000e+00,3.299760191846522694e+00
8.870247524752473689e-01,9.584664536741213658e-03,1.661341853035143701e-01,-2.034078807241746500e-01,9.642685851318944401e+00,-1.079136690647481966e-01,3.431654676258992787e+00
8.919801980198017732e-01,1.916932907348242732e-02,2.108626198083067005e-01,-2.236421725239616520e-01,9.477218225419663966e+00,5.515587529976018893e-02,3.520383693045563422e+00
8.969356435643562886e-01,2.023429179978700893e-02,2.587859424920127549e-01,-2.342917997870074542e-01,9.705035971223020752e+00,1.414868105515587615e-01,4.347721822541966041e+00
9.018910891089106929e-01,3.727369542066027996e-02,2.587859424920127549e-01,-2.406815761448349300e-01,9.589928057553956720e+00,1.031175059952038342e-01,4.896882494004795916e+00
9.068465346534652083e-01,4.685835995740149362e-02,2.183173588924387509e-01,-2.566560170394036056e-01,9.494004796163070026e+00,2.422062350119904006e-01,4.983213429256594829e+00
9.118019801980196126e-01,4.792332268370606829e-02,1.746538871139510229e-01,-2.641107561235356838e-01,9.263788968824940184e+00,7.098321342925659749e-01,4.988009592326139163e+00
9.167574257425741280e-01,5.431309904153354406e-02,1.352502662406815659e-01,-2.385516506922257807e-01,9.031175059952039064e+00,9.544364508393284874e-01,4.513189448441247364e+00
9.217128712871285323e-01,5.963791267305644517e-02,1.277955271565495154e-01,-1.853035143769967974e-01,9.359712230215826878e+00,5.323741007194244812e-01,4.148681055155875264e+00
9.266683168316830477e-01,7.774227902023429781e-02,1.597444089456868943e-01,-1.810436634717784987e-01,9.623501199040767062e+00,-2.877697841726618855e-02,3.899280575539568527e+00
9.316237623762374520e-01,7.987220447284344715e-02,2.012779552715655007e-01,-2.204472843450479280e-01,9.465227817745804018e+00,4.796163069544364180e-03,4.366906474820144268e+00
9.365792079207919674e-01,8.200212992545261037e-02,1.927582534611288478e-01,-2.481363152289669805e-01,8.944844124700239263e+00,6.139088729016786150e-01,5.321342925659472201e+00
9.415346534653463717e-01,1.011714589989350377e-01,1.096911608093716767e-01,-1.980830670926517489e-01,8.460431654676259683e+00,8.129496402877698369e-01,5.482014388489208301e+00
9.464900990099008871e-01,1.139510117145899892e-01,1.490947816826411129e-02,-1.384451544195953177e-01,8.743405275779377206e+00,2.110311750599520308e-01,5.258992805755395850e+00
9.514455445544552914e-01,1.384451544195953177e-01,-3.620873269435569836e-02,-1.448349307774227934e-01,9.247002398081534125e+00,-2.685851318944844079e-01,4.990407673860911331e+00
9.564009900990096957e-01,1.405750798722044670e-01,-7.987220447284344715e-02,-1.980830670926517489e-01,9.352517985611511264e+00,-2.158273381294963933e-01,5.172661870503596937e+00
9.613564356435642111e-01,1.629392971246006461e-01,-1.267305644302449408e-01,-2.257720979765708291e-01,9.235011990407674176e+00,2.589928057553956831e-01,5.119904076738609255e+00
9.663118811881186154e-01,1.778487752928647470e-01,-1.725239616613418459e-01,-2.066027689030884018e-01,9.088729016786571080e+00,4.388489208633093441e-01,4.954436450839328820e+00
9.712673267326731308e-01,1.959531416400425996e-01,-1.874334398296059745e-01,-1.874334398296059745e-01,9.340527577937649539e+00,3.741007194244604372e-01,4.964028776978417490e+00
9.762227722772275351e-01,2.023429179978700754e-01,-2.097976570820021258e-01,-1.938232161874334503e-01,9.453237410071942293e+00,4.316546762589927866e-01,5.004796163069544335e+00
9.811782178217820505e-01,1.927582534611288478e-01,-2.481363152289669805e-01,-2.034078807241746500e-01,9.472422062350119631e+00,5.923261390887289979e-01,5.244604316546762846e+00
9.861336633663364548e-01,1.959531416400425996e-01,-2.981895633652822397e-01,-1.959531416400425996e-01,9.294964028776979248e+00,8.489208633093525691e-01,4.978417266187050494e+00
9.910891089108909702e-01,1.842385516506922227e-01,-3.301384451544195908e-01,-1.735889243876464205e-01,9.218225419664268117e+00,1.023980815347721895e+00,5.059952038369304184e+00
9.960445544554453745e-01,1.916932907348242732e-01,-3.599574014909477926e-01,-1.363152289669861683e-01,9.244604316546762846e+00,1.134292565947242259e+00,4.942446043165467984e+00
1.000999999999999668e+00,1.821086261980830734e-01,-3.929712460063897739e-01,-9.691160809371672513e-02,9.534772182254195982e+00,1.107913669064748197e+00,5.071942446043165909e+00
1.005955445544554294e+00,1.778487752928647470e-01,-4.408945686900958560e-01,-6.496272630457934627e-02,9.510791366906474309e+00,1.083932853717026301e+00,4.714628297362110310e+00
1.010910891089108699e+00,1.565495207667731703e-01,-4.664536741214057591e-01,-4.579339723109691201e-02,9.604316546762589724e+00,1.064748201438848962e+00,4.582733812949640217e+00
1.015866336633663103e+00,1.458998935037273681e-01,-4.781682641107561360e-01,-2.129925452609158706e-02,9.573141486810552436e+00,1.043165467625899234e+00,4.316546762589927866e+00
1.020821782178217507e+00,1.320553780617678419e-01,-4.760383386581469867e-01,6.389776357827475772e-03,9.623501199040767062e+00,9.784172661870503829e-01,4.115107913669064921e+00
1.025777227722772134e+00,1.171458998935037271e-01,-4.717784877529286325e-01,2.875399361022364098e-02,9.712230215827338142e+00,7.913669064748201087e-01,4.009592326139088669e+00
1.030732673267326538e+00,1.096911608093716767e-01,-4.643237486687966098e-01,3.407880724174654208e-02,9.781774580335731883e+00,7.050359712230215292e-01,3.776978417266187105e+00
1.035688118811880942e+00,1.001064962726304630e-01,-4.526091586794462329e-01,4.046858359957401785e-02,9.721822541966426812e+00,6.954436450839328598e-01,3.724220623501198979e+00
1.040643564356435347e+00,1.064962726304579388e-01,-4.281150159744409045e-01,5.750798722044728195e-02,9.724220623501199867e+00,7.074340527577938076e-01,3.436450839328537121e+00
1.045599009900989751e+00,1.086261980830670881e-01,-3.940362087326943485e-01,8.093716719914803570e-02,9.755395683453237154e+00,6.282973621103117301e-01,3.297362110311750527e+00
1.050554455445544377e+00,1.235356762513312029e-01,-3.450479233226836917e-01,1.022364217252396124e-01,9.808153477218224836e+00,5.371702637889688159e-01,3.167865707434052602e+00
1.055509900990098782e+00,1.256656017039403661e-01,-2.960596379126730349e-01,1.096911608093716767e-01,9.733812949640288537e+00,5.683453237410072134e-01,3.321342925659472201e+00
1.060465346534653186e+00,1.267305644302449408e-01,-2.641107561235356838e-01,1.235356762513312029e-01,9.606714628297362779e+00,6.690647482014387970e-01,3.489208633093525247e+00
1.065420792079207590e+00,1.214057507987220397e-01,-2.417465388711395047e-01,1.384451544195953177e-01,9.426858513189447564e+00,7.553956834532373765e-01,3.532374100719424259e+00
1.070376237623762217e+00,1.086261980830670881e-01,-2.279020234291799785e-01,1.522896698615548439e-01,9.258992805755395850e+00,7.817745803357314394e-01,3.565947242206235046e+00
1.075331683168316621e+00,8.839190628328008614e-02,-2.161874334398296016e-01,1.693290734824281218e-01,9.251798561151078459e+00,7.266187050359712574e-01,3.565947242206235046e+00
1.080287128712871025e+00,6.070287539936101984e-02,-2.066027689030884018e-01,1.789137380191693216e-01,9.352517985611511264e+00,6.450839328537170125e-01,3.597122302158273222e+00
1.085242574257425430e+00,3.833865814696485463e-02,-1.980830670926517489e-01,1.799787007454738963e-01,9.359712230215826878e+00,6.570743405275779603e-01,3.558752997601918544e+00
1.090198019801980056e+00,5.324813631522896766e-03,-1.853035143769967974e-01,1.810436634717784987e-01,9.290167865707434913e+00,6.906474820143885252e-01,3.575539568345323715e+00
1.095153465346534460e+00,-1.916932907348242732e-02,-1.703940362087326965e-01,1.863684771033013721e-01,9.275779376498800133e+00,6.762589928057554101e-01,3.494004796163069582e+00
1.100108910891088865e+00,-4.579339723109691201e-02,-1.480298189563365174e-01,1.938232161874334503e-01,9.393285371702637221e+00,5.947242206235011652e-01,3.426858513189448452e+00
1.105064356435643269e+00,-7.561235356762513460e-02,-1.192758253461128903e-01,1.863684771033013721e-01,9.472422062350119631e+00,5.275779376498801465e-01,3.453237410071942293e+00
1.110019801980197673e+00,-1.054313099041533502e-01,-8.626198083067092293e-02,1.735889243876464205e-01,9.486810551558752636e+00,5.587529976019184330e-01,3.609112709832134502e+00
1.114975247524752300e+00,-1.235356762513312029e-01,-5.963791267305644517e-02,1.640042598509052207e-01,9.388489208633092886e+00,6.522781774580336256e-01,3.776978417266187105e+00
1.119930693069306704e+00,-1.405750798722044670e-01,-4.046858359957401785e-02,1.661341853035143701e-01,9.158273381294964821e+00,7.745803357314148263e-01,3.961630695443644878e+00
1.124886138613861108e+00,-1.554845580404685956e-01,-3.301384451544196047e-02,1.778487752928647470e-01,9.043165467625899012e+00,8.441247002398081234e-01,4.107913669064748419e+00
1.129841584158415513e+00,-1.640042598509052207e-01,-3.940362087326943624e-02,1.959531416400425996e-01,9.098321342925659749e+00,7.170263788968824770e-01,4.081534772182254578e+00
1.134797029702970139e+00,-1.703940362087326965e-01,-4.046858359957401785e-02,2.108626198083067005e-01,9.112709832134292753e+00,6.043165467625899456e-01,4.141486810551558762e+00
1.139752475247524544e+00,-1.714589989350372712e-01,-4.472843450479233041e-02,2.140575079872204523e-01,8.829736211031175230e+00,5.539568345323740983e-01,4.189448441247002108e+00
1.144707920792078948e+00,-1.810436634717784987e-01,-5.431309904153354406e-02,2.108626198083067005e-01,8.829736211031175230e+00,4.916067146282973588e-01,4.621103117505994895e+00
1.149663366336633352e+00,-1.842385516506922227e-01,-9.797657082002129980e-02,2.129925452609158776e-01,8.757793764988010210e+00,3.549160671462829875e-01,4.573141486810551548e+00
1.154618811881187979e+00,-1.895633652822151238e-01,-1.395101171458998923e-01,1.991480298189563236e-01,8.860911270983214294e+00,9.832134292565947176e-02,4.374100719424460770e+00
1.159574257425742383e+00,-1.842385516506922227e-01,-1.640042598509052207e-01,1.725239616613418459e-01,8.729016786570744202e+00,1.438848920863309427e-02,4.208633093525179447e+00
1.164529702970296787e+00,-1.767838125665601723e-01,-1.799787007454738963e-01,1.501597444089456945e-01,8.585131894484412385e+00,1.103117505995203779e-01,4.316546762589927866e+00
1.169485148514851192e+00,-1.597444089456868943e-01,-2.055378061767837994e-01,1.405750798722044670e-01,8.522781774580336034e+00,1.486810551558752913e-01,4.321342925659472201e+00
1.174440594059405818e+00,-1.448349307774227934e-01,-2.396166134185303553e-01,1.320553780617678419e-01,8.513189448441247364e+00,5.755395683453237710e-02,4.273381294964028854e+00
1.179396039603960222e+00,-1.235356762513312029e-01,-2.726304579339723366e-01,1.182108626198083018e-01,8.589928057553956720e+00,-4.796163069544364527e-02,4.095923261390887582e+00
1.184351485148514627e+00,-1.043663471778487756e-01,-2.981895633652822397e-01,1.011714589989350377e-01,8.693045563549160804e+00,-2.877697841726618855e-02,3.786570743405275774e+00
1.189306930693069031e+00,-8.413205537806177359e-02,-3.077742279020234117e-01,8.732694355697551147e-02,8.745803357314148485e+00,7.913669064748200810e-02,3.491606714628297414e+00
1.194262376237623435e+00,-6.176783812566560145e-02,-2.939297124600638855e-01,8.626198083067092293e-02,8.776978417266187549e+00,1.247002398081534791e-01,3.196642685851319055e+00
1.199217821782178062e+00,-4.472843450479233041e-02,-2.598509052183173851e-01,9.158679446219382403e-02,8.952038369304556653e+00,6.474820143884892076e-02,3.086330935251798468e+00
1.204173267326732466e+00,-2.662406815761448470e-02,-2.193823216187433534e-01,8.732694355697551147e-02,9.134292565947241371e+00,-7.194244604316547137e-03,3.086330935251798468e+00
1.209128712871286870e+00,-1.490947816826411129e-02,-1.874334398296059745e-01,6.922257720979765883e-02,9.107913669064748419e+00,4.076738609112710160e-02,3.167865707434052602e+00
1.214084158415841275e+00,-3.194888178913737886e-03,-1.608093716719914690e-01,5.324813631522896940e-02,8.952038369304556653e+00,2.278177458033573133e-01,3.153477218225419598e+00
1.219039603960395901e+00,2.129925452609158880e-03,-1.363152289669861683e-01,5.644302449414270728e-02,8.856115107913668183e+00,3.453237410071942626e-01,3.170263788968824770e+00
1.223995049504950305e+00,9.584664536741213658e-03,-1.075612353567625135e-01,6.389776357827475772e-02,8.844124700239808234e+00,3.477218225419664299e-01,3.211031175059952059e+00
1.228950495049504710e+00,8.519701810436635520e-03,-8.200212992545261037e-02,6.283280085197018305e-02,8.803357314148680501e+00,3.525179856115107646e-01,3.398081534772182444e+00
1.233905940594059114e+00,8.519701810436635520e-03,-7.561235356762513460e-02,5.750798722044728195e-02,8.709832134292565087e+00,4.052757793764987793e-01,3.630695443645084008e+00
1.238861386138613740e+00,5.324813631522896766e-03,-8.306709265175718504e-02,5.963791267305644517e-02,8.575539568345323715e+00,5.611510791366906004e-01,3.717026378896882477e+00
1.243816831683168145e+00,3.194888178913737886e-03,-9.584664536741213658e-02,7.135250266240682204e-02,8.484412470023981356e+00,6.690647482014387970e-01,3.700239808153477306e+00
1.248772277227722549e+00,4.259850905218317760e-03,-1.011714589989350377e-01,8.626198083067092293e-02,8.472422062350119631e+00,6.690647482014387970e-01,3.625899280575539674e+00
1.253727722772276953e+00,1.064962726304579440e-03,-9.904153354632587447e-02,1.011714589989350377e-01,8.508393285371703030e+00,6.235011990407673954e-01,3.731414868105515481e+00
1.258683168316831580e+00,-2.129925452609158880e-03,-1.075612353567625135e-01,1.128860489882854146e-01,8.446043165467626679e+00,6.402877697841726778e-01,3.760191846522781933e+00
1.263638613861385984e+00,-7.454739084132055646e-03,-1.150159744408945639e-01,1.256656017039403661e-01,8.477218225419663966e+00,5.827338129496403285e-01,3.757793764988009766e+00
1.268594059405940389e+00,-2.129925452609158880e-03,-1.256656017039403661e-01,1.416400425985090417e-01,8.709832134292565087e+00,4.340527577937650094e-01,3.776978417266187105e+00
1.273549504950494793e+00,-5.324813631522896766e-03,-1.448349307774227934e-01,1.416400425985090417e-01,8.580335731414868050e+00,3.884892086330935523e-01,3.460431654676258795e+00
1.278504950495049197e+00,-1.384451544195953142e-02,-1.277955271565495154e-01,1.299254526091586925e-01,8.558752997601917656e+00,5.587529976019184330e-01,3.597122302158273222e+00
1.283460396039603824e+00,-2.023429179978700893e-02,-1.171458998935037271e-01,1.416400425985090417e-01,8.482014388489208301e+00,7.266187050359712574e-01,3.817745803357313950e+00
1.288415841584158228e+00,-3.088391906283280072e-02,-1.320553780617678419e-01,1.671991480298189447e-01,8.443645083932853623e+00,6.882494004796163578e-01,3.913669064748201532e+00
1.293371287128712632e+00,-4.046858359957401785e-02,-1.501597444089456945e-01,1.863684771033013721e-01,8.474820143884892687e+00,5.539568345323740983e-01,3.767386091127098435e+00
1.298326732673267037e+00,-6.496272630457934627e-02,-1.650692225772097954e-01,1.842385516506922227e-01,8.458033573141486627e+00,5.203836930455635335e-01,3.764988009592326268e+00
1.303282178217821663e+00,-8.306709265175718504e-02,-1.831735889243876481e-01,1.767838125665601723e-01,8.369304556354915547e+00,6.426858513189448452e-01,3.697841726618705138e+00
1.308237623762376067e+00,-1.064962726304579388e-01,-2.002129925452609260e-01,1.831735889243876481e-01,8.422062350119903229e+00,7.290167865707434247e-01,3.623501199040767506e+00
1.313193069306930472e+00,-1.214057507987220397e-01,-2.129925452609158776e-01,1.970181043663471743e-01,8.491606714628296970e+00,7.458033573141487071e-01,3.316546762589927866e+00
1.318148514851484876e+00,-1.352502662406815659e-01,-2.087326943556975511e-01,2.151224707135250269e-01,8.630695443645084453e+00,7.050359712230215292e-01,3.043165467625899456e+00
1.323103960396039502e+00,-1.437699680511182188e-01,-1.842385516506922227e-01,2.364217252396166036e-01,8.745803357314148485e+00,7.170263788968824770e-01,2.872901678657074243e+00
1.328059405940593907e+00,-1.395101171458998923e-01,-1.533546325878594185e-01,2.598509052183173851e-01,8.793764988009591832e+00,7.050359712230215292e-01,2.721822541966426812e+00
1.333014851485148311e+00,-1.331203407880724165e-01,-1.150159744408945639e-01,2.949946751863684602e-01,8.949640287769783598e+00,5.755395683453237154e-01,2.618705035971223172e+00
1.337970297029702715e+00,-1.160809371671991524e-01,-6.602768903088392094e-02,3.248136315228967175e-01,9.069544364508393741e+00,3.549160671462829875e-01,2.525179856115107757e+00
1.342925742574257342e+00,-1.033013844515442009e-01,-1.384451544195953142e-02,3.407880724174653930e-01,9.064748201438849406e+00,1.366906474820143991e-01,2.661870503597122184e+00
1.347881188118811746e+00,-8.413205537806177359e-02,2.768903088391906284e-02,3.461128860489882664e-01,9.031175059952039064e+00,3.357314148681055099e-02,2.726618705035971146e+00
1.352836633663366150e+00,-7.241746538871139671e-02,5.857294994675186356e-02,3.471778487752928410e-01,9.055155875299760737e+00,-2.398081534772182263e-02,2.760191846522781933e+00
1.357792079207920555e+00,-6.070287539936101984e-02,9.584664536741213658e-02,3.439829605963791170e-01,9.059952038369305072e+00,-1.414868105515587615e-01,2.824940047961630896e+00
1.362747524752474959e+00,-4.792332268370606829e-02,1.331203407880724165e-01,3.407880724174653930e-01,9.045563549160672068e+00,-3.021582733812949728e-01,3.016786570743405171e+00
1.367702970297029585e+00,-3.833865814696485463e-02,1.682641107561235472e-01,3.269435569755058668e-01,9.009592326139088669e+00,-3.836930455635491621e-01,3.333333333333333481e+00
1.372658415841583990e+00,-2.875399361022364098e-02,1.778487752928647470e-01,3.088391906283279864e-01,8.851318944844123848e+00,-4.052757793764987793e-01,3.630695443645084008e+00
1.377613861386138394e+00,-3.088391906283280072e-02,1.661341853035143701e-01,2.875399361022364375e-01,8.678657074340527799e+00,-4.052757793764987793e-01,3.817745803357313950e+00
1.382569306930692798e+00,-3.407880724174654208e-02,1.490947816826411199e-01,2.630457933972311091e-01,8.597122302158274110e+00,-3.717026378896882699e-01,3.858513189448441238e+00
1.387524752475247425e+00,-4.685835995740149362e-02,1.341853035143769912e-01,2.364217252396166036e-01,8.537170263788969038e+00,-3.525179856115107646e-01,3.997601918465227833e+00
1.392480198019801829e+00,-5.324813631522896940e-02,1.107561235356762513e-01,2.193823216187433534e-01,8.563549160671461991e+00,-3.812949640287769948e-01,4.033573141486810343e+00
1.397435643564356234e+00,-5.963791267305644517e-02,8.519701810436634826e-02,2.034078807241746500e-01,8.558752997601917656e+00,-4.316546762589927866e-01,4.019184652278177339e+00
1.402391089108910638e+00,-6.815761448349308416e-02,7.241746538871139671e-02,1.767838125665601723e-01,8.546762589928057707e+00,-4.292565947242206192e-01,4.103117505995204084e+00
1.407346534653465264e+00,-8.626198083067092293e-02,4.792332268370606829e-02,1.469648562300319428e-01,8.575539568345323715e+00,-3.932853717026378870e-01,4.055155875299759849e+00
1.412301980198019669e+00,-1.064962726304579388e-01,2.981895633652822258e-02,1.214057507987220397e-01,8.788968824940047497e+00,-4.892086330935251914e-01,4.047961630695443347e+00
1.417257425742574073e+00,-1.224707135250266282e-01,6.389776357827475772e-03,8.306709265175718504e-02,8.705035971223020752e+00,-5.587529976019184330e-01,3.913669064748201532e+00
1.422212871287128477e+00,-1.458998935037273681e-01,-1.171458998935037341e-02,3.620873269435569836e-02,8.597122302158274110e+00,-5.443645083932853179e-01,3.980815347721822661e+00
1.427168316831683104e+00,-1.533546325878594185e-01,-3.407880724174654208e-02,3.194888178913737886e-03,8.661870503597121740e+00,-5.011990407673860837e-01,3.894484412470024193e+00
1.432123762376237508e+00,-1.640042598509052207e-01,-4.898828541001064990e-02,-3.088391906283280072e-02,8.709832134292565087e+00,-5.251798561151078681e-01,3.925659472422062368e+00
1.437079207920791912e+00,-1.629392971246006461e-01,-6.176783812566560145e-02,-6.496272630457934627e-02,8.690647482014387748e+00,-5.899280575539568305e-01,3.918465227817745866e+00
1.442034653465346317e+00,-1.576144834930777450e-01,-8.306709265175718504e-02,-1.011714589989350377e-01,8.743405275779377206e+00,-6.402877697841726778e-01,3.971223021582733992e+00
1.446990099009900721e+00,-1.437699680511182188e-01,-1.054313099041533502e-01,-1.341853035143769912e-01,8.731414868105515481e+00,-5.515587529976019310e-01,3.889688249400479414e+00
1.451945544554455347e+00,-1.246006389776357776e-01,-1.214057507987220397e-01,-1.608093716719914690e-01,8.793764988009591832e+00,-4.220623501199040617e-01,3.630695443645084008e+00
1.456900990099009752e+00,-1.107561235356762513e-01,-1.139510117145899892e-01,-1.810436634717784987e-01,8.887290167865707247e+00,-3.573141486810551548e-01,3.258992805755395850e+00
1.461856435643564156e+00,-9.478168264110756192e-02,-7.667731629392970927e-02,-1.959531416400425996e-01,8.760191846522781489e+00,-2.565947242206235157e-01,3.853717026378896904e+00
1.466811881188118560e+00,-5.324813631522896940e-02,-8.519701810436634826e-02,-1.959531416400425996e-01,9.057553956834532016e+00,-2.014388489208633060e-01,4.141486810551558762e+00
1.471767326732673187e+00,-3.514376996805111675e-02,-1.320553780617678419e-01,-1.959531416400425996e-01,8.882494004796162912e+00,-7.194244604316547137e-03,3.882494004796162912e+00
1.476722772277227591e+00,-1.277955271565495154e-02,-1.427050053248136441e-01,-1.884984025559105492e-01,8.788968824940047497e+00,2.110311750599520308e-01,3.551558752997602042e+00
1.481678217821781995e+00,6.389776357827475772e-03,-1.246006389776357776e-01,-1.757188498402555976e-01,8.738609112709832871e+00,4.652278177458033515e-01,3.429256594724220619e+00
1.486633663366336400e+00,1.703940362087327104e-02,-1.033013844515442009e-01,-1.437699680511182188e-01,8.796163069544364888e+00,5.803357314148680501e-01,3.880095923261390745e+00
1.491589108910891026e+00,3.727369542066027996e-02,-1.118210862619808260e-01,-1.054313099041533502e-01,8.988009592326138275e+00,5.467625899280575963e-01,3.899280575539568527e+00
1.496544554455445430e+00,2.768903088391906284e-02,-1.416400425985090417e-01,-8.413205537806177359e-02,9.007194244604317390e+00,4.868105515587530241e-01,3.834532374100719565e+00
1.501499999999999835e+00,3.194888178913737886e-02,-1.586794462193823196e-01,-7.135250266240682204e-02,8.884892086330935967e+00,6.139088729016786150e-01,3.381294964028776828e+00
1.506455445544554239e+00,1.597444089456868943e-02,-1.480298189563365174e-01,-4.259850905218317413e-02,8.793764988009591832e+00,7.002398081534771945e-01,3.342925659472422151e+00
1.511410891089108643e+00,1.810436634717784918e-02,-1.352502662406815659e-01,-2.129925452609158880e-03,8.841726618705035179e+00,6.618705035971222950e-01,3.184652278177458218e+00
1.516366336633663270e+00,7.454739084132055646e-03,-1.235356762513312029e-01,2.981895633652822258e-02,9.064748201438849406e+00,4.436450839328537343e-01,3.211031175059952059e+00
1.521321782178217674e+00,-6.389776357827475772e-03,-1.150159744408945639e-01,4.046858359957401785e-02,9.165467625899280435e+00,2.350119904076738708e-01,3.146282973621103096e+00
1.526277227722772079e+00,-2.449414270500532495e-02,-1.054313099041533502e-01,3.301384451544196047e-02,9.158273381294964821e+00,1.894484412470023860e-01,2.911270983213429364e+00
1.531232673267326483e+00,-4.685835995740149362e-02,-7.774227902023429781e-02,2.662406815761448470e-02,9.124700239808152702e+00,2.494004796163069582e-01,2.865707434052757741e+00
1.536188118811881109e+00,-5.644302449414270728e-02,-4.153354632587859252e-02,3.194888178913737886e-02,9.117505995203837088e+00,2.613908872901678504e-01,2.781774580335731439e+00
1.541143564356435514e+00,-6.922257720979765883e-02,-4.259850905218317760e-03,4.259850905218317413e-02,9.139088729016785706e+00,1.630695443645084064e-01,3.079136690647481966e+00
1.546099009900989918e+00,-7.241746538871139671e-02,1.916932907348242732e-02,4.685835995740149362e-02,9.100719424460431028e+00,1.366906474820143991e-01,3.194244604316546887e+00
1.551054455445544322e+00,-8.200212992545261037e-02,2.768903088391906284e-02,4.685835995740149362e-02,9.002398081534773056e+00,1.846522781774580235e-01,3.366906474820143824e+00
1.556009900990098949e+00,-8.519701810436634826e-02,2.875399361022364098e-02,5.324813631522896940e-02,8.868105515587529908e+00,2.973621103117505826e-01,3.299760191846522694e+00
1.560965346534653353e+00,-9.478168264110756192e-02,3.620873269435569836e-02,6.709265175718849561e-02,8.865707434052758629e+00,2.877697841726618577e-01,3.326139088729016979e+00
1.565920792079207757e+00,-1.011714589989350377e-01,4.685835995740149362e-02,7.774227902023429781e-02,8.944844124700239263e+00,2.230215827338129508e-01,3.366906474820143824e+00
1.570876237623762162e+00,-1.139510117145899892e-01,5.218317358892438779e-02,8.306709265175718504e-02,9.016786570743406060e+00,1.007194244604316530e-01,3.417266187050359783e+00
1.575831683168316788e+00,-1.267305644302449408e-01,5.218317358892438779e-02,7.987220447284344715e-02,9.071942446043165020e+00,1.199040767386091132e-02,3.494004796163069582e+00
1.580787128712871192e+00,-1.341853035143769912e-01,5.218317358892438779e-02,7.561235356762513460e-02,9.057553956834532016e+00,-1.918465227817745672e-02,3.436450839328537121e+00
1.585742574257425597e+00,-1.427050053248136441e-01,5.750798722044728195e-02,6.922257720979765883e-02,9.067146282973620686e+00,-3.836930455635491344e-02,3.482014388489208745e+00
1.590698019801980001e+00,-1.448349307774227934e-01,6.815761448349308416e-02,6.496272630457934627e-02,9.043165467625899012e+00,-3.117505995203836977e-02,3.491606714628297414e+00
1.595653465346534405e+00,-1.480298189563365174e-01,6.922257720979765883e-02,6.176783812566560145e-02,9.000000000000000000e+00,-4.316546762589928282e-02,3.640287769784172678e+00
1.600608910891089032e+00,-1.458998935037273681e-01,6.283280085197018305e-02,6.283280085197018305e-02,8.966426858513189657e+00,-1.918465227817745672e-02,3.613908872901678837e+00
1.605564356435643436e+00,-1.501597444089456945e-01,5.431309904153354406e-02,6.389776357827475772e-02,8.904076738609113306e+00,-2.398081534772182090e-03,3.633093525179856176e+00
1.610519801980197840e+00,-1.512247071352502692e-01,5.005324813631523151e-02,6.389776357827475772e-02,8.920863309352517589e+00,7.194244604316547137e-03,3.611510791366906670e+00
1.615475247524752245e+00,-1.586794462193823196e-01,4.579339723109691201e-02,6.070287539936101984e-02,8.978417266187049606e+00,-1.918465227817745672e-02,3.587529976019184552e+00
1.620430693069306871e+00,-1.671991480298189447e-01,4.472843450479233041e-02,5.963791267305644517e-02,9.026378896882494729e+00,-9.112709832134292809e-02,3.589928057553956720e+00
1.625386138613861275e+00,-1.671991480298189447e-01,4.685835995740149362e-02,5.218317358892438779e-02,9.023980815347721673e+00,-1.558752997601918489e-01,3.563549160671462879e+00
1.630341584158415680e+00,-1.682641107561235472e-01,5.005324813631523151e-02,4.259850905218317413e-02,8.964028776978416602e+00,-1.822541966426858562e-01,3.604316546762589724e+00
1.635297029702970084e+00,-1.608093716719914690e-01,5.111821086261980618e-02,3.727369542066027996e-02,8.901678657074340251e+00,-1.918465227817745811e-01,3.594724220623501054e+00
1.640252475247524711e+00,-1.565495207667731703e-01,5.005324813631523151e-02,3.620873269435569836e-02,8.954436450839327932e+00,-2.422062350119904006e-01,3.628297362110311841e+00
1.645207920792079115e+00,-1.437699680511182188e-01,5.005324813631523151e-02,3.407880724174654208e-02,9.035971223021583398e+00,-3.021582733812949728e-01,3.625899280575539674e+00
1.650163366336633519e+00,-1.331203407880724165e-01,5.005324813631523151e-02,2.449414270500532495e-02,9.095923261390886694e+00,-3.141486810551558650e-01,3.695443645083932971e+00
1.655118811881187924e+00,-1.192758253461128903e-01,4.792332268370606829e-02,1.490947816826411129e-02,9.038369304556354678e+00,-2.733812949640287981e-01,3.750599520383693264e+00
1.660074257425742550e+00,-1.107561235356762513e-01,4.259850905218317413e-02,9.584664536741213658e-03,8.961630695443645322e+00,-2.134292565947242259e-01,3.745803357314148485e+00
1.665029702970296954e+00,-1.022364217252396124e-01,3.727369542066027996e-02,5.324813631522896766e-03,8.920863309352517589e+00,-2.014388489208633060e-01,3.721822541966426812e+00
1.669985148514851359e+00,-9.584664536741213658e-02,3.088391906283280072e-02,3.194888178913737886e-03,8.949640287769783598e+00,-2.278177458033573133e-01,3.733812949640287648e+00
1.674940594059405763e+00,-9.797657082002129980e-02,1.916932907348242732e-02,-1.064962726304579440e-03,9.011990407673861725e+00,-2.661870503597122406e-01,3.791366906474820109e+00
1.679896039603960167e+00,-9.797657082002129980e-02,1.171458998935037341e-02,-1.064962726304579353e-02,9.057553956834532016e+00,-2.685851318944844079e-01,3.738609112709831983e+00
1.684851485148514794e+00,-9.478168264110756192e-02,7.454739084132055646e-03,-1.916932907348242732e-02,9.031175059952039064e+00,-2.901678657074340251e-01,3.729016786570743314e+00
1.689806930693069198e+00,-8.945686900958466081e-02,7.454739084132055646e-03,-2.555910543130990309e-02,9.043165467625899012e+00,-3.069544364508393075e-01,3.657074340527577849e+00
1.694762376237623602e+00,-8.200212992545261037e-02,6.389776357827475772e-03,-3.301384451544196047e-02,9.057553956834532016e+00,-3.549160671462829875e-01,3.683453237410072134e+00
1.699717821782178007e+00,-7.241746538871139671e-02,5.324813631522896766e-03,-4.259850905218317413e-02,9.091127098321342359e+00,-4.196642685851318944e-01,3.642685851318944845e+00
1.704673267326732633e+00,-6.176783812566560145e-02,6.389776357827475772e-03,-5.857294994675186356e-02,9.098321342925659749e+00,-4.532374100719424592e-01,3.623501199040767506e+00
1.709628712871287037e+00,-5.644302449414270728e-02,8.519701810436635520e-03,-7.348242811501597138e-02,9.110311750599519698e+00,-4.460431654676259017e-01,3.618705035971223172e+00
1.714584158415841442e+00,-5.111821086261980618e-02,1.490947816826411129e-02,-8.945686900958466081e-02,9.153477218225420486e+00,-4.340527577937650094e-01,3.589928057553956720e+00
1.719539603960395846e+00,-4.898828541001064990e-02,2.236421725239616520e-02,-1.096911608093716767e-01,9.107913669064748419e+00,-3.381294964028777050e-01,3.688249400479616469e+00
1.724495049504950472e+00,-4.792332268370606829e-02,2.342917997870074681e-02,-1.224707135250266282e-01,8.978417266187049606e+00,-2.158273381294963933e-01,3.729016786570743314e+00
1.729450495049504877e+00,-4.792332268370606829e-02,1.597444089456868943e-02,-1.267305644302449408e-01,8.949640287769783598e+00,-1.294964028776978415e-01,3.755395683453237599e+00
1.734405940594059281e+00,-5.111821086261980618e-02,7.454739084132055646e-03,-1.246006389776357776e-01,8.928057553956834980e+00,-1.462829736211031240e-01,3.764988009592326268e+00
1.739361386138613685e+00,-5.431309904153354406e-02,3.194888178913737886e-03,-1.246006389776357776e-01,8.925659472422061924e+00,-1.342925659472422040e-01,3.851318944844124736e+00
1.744316831683168090e+00,-5.857294994675186356e-02,-9.584664536741213658e-03,-1.246006389776357776e-01,8.988009592326138275e+00,-1.127098321342925591e-01,3.911270983213429364e+00
1.749272277227722716e+00,-6.389776357827475772e-02,-2.449414270500532495e-02,-1.256656017039403661e-01,9.002398081534773056e+00,-6.235011990407673954e-02,3.918465227817745866e+00
1.754227722772277120e+00,-6.922257720979765883e-02,-3.727369542066027996e-02,-1.224707135250266282e-01,8.949640287769783598e+00,0.000000000000000000e+00,3.870503597122302075e+00
1.759183168316831525e+00,-7.454739084132055993e-02,-4.366347177848775574e-02,-1.160809371671991524e-01,8.954436450839327932e+00,-4.796163069544364180e-03,3.829736211031175230e+00
1.764138613861385929e+00,-8.093716719914803570e-02,-5.005324813631523151e-02,-1.075612353567625135e-01,9.007194244604317390e+00,-7.673860911270982688e-02,3.796163069544364443e+00
1.769094059405940556e+00,-8.839190628328008614e-02,-5.750798722044728195e-02,-1.043663471778487756e-01,9.047961630695443347e+00,-1.630695443645084064e-01,3.738609112709831983e+00
1.774049504950494960e+00,-9.904153354632587447e-02,-6.389776357827475772e-02,-1.107561235356762513e-01,9.074340527577938076e+00,-2.134292565947242259e-01,3.661870503597122184e+00
1.779004950495049364e+00,-1.075612353567625135e-01,-6.283280085197018305e-02,-1.182108626198083018e-01,9.083932853717026745e+00,-2.350119904076738708e-01,3.556354916067146377e+00
1.783960396039603769e+00,-1.192758253461128903e-01,-6.176783812566560145e-02,-1.267305644302449408e-01,9.143884892086331817e+00,-2.470023980815347631e-01,3.422062350119904117e+00
1.788915841584158395e+00,-1.309904153354632672e-01,-5.111821086261980618e-02,-1.341853035143769912e-01,9.191846522781775164e+00,-2.589928057553956831e-01,3.335731414868105649e+00
1.793871287128712799e+00,-1.384451544195953177e-01,-3.514376996805111675e-02,-1.427050053248136441e-01,9.191846522781775164e+00,-2.278177458033573133e-01,3.378896882494004661e+00
1.798826732673267204e+00,-1.480298189563365174e-01,-2.129925452609158706e-02,-1.512247071352502692e-01,9.146282973621103096e+00,-2.182254196642685884e-01,3.431654676258992787e+00
1.803782178217821608e+00,-1.565495207667731703e-01,-1.810436634717784918e-02,-1.554845580404685956e-01,9.129496402877697037e+00,-1.822541966426858562e-01,3.474820143884892243e+00
1.808737623762376234e+00,-1.629392971246006461e-01,-1.810436634717784918e-02,-1.544195953141639932e-01,9.119904076738608367e+00,-1.798561151079136611e-01,3.474820143884892243e+00
1.813693069306930639e+00,-1.629392971246006461e-01,-1.171458998935037341e-02,-1.522896698615548439e-01,9.165467625899280435e+00,-1.726618705035971313e-01,3.458033573141486627e+00
1.818648514851485043e+00,-1.640042598509052207e-01,-4.259850905218317760e-03,-1.480298189563365174e-01,9.225419664268585507e+00,-1.798561151079136611e-01,3.494004796163069582e+00
1.823603960396039447e+00,-1.629392971246006461e-01,5.324813631522896766e-03,-1.458998935037273681e-01,9.251798561151078459e+00,-1.678657074340527688e-01,3.565947242206235046e+00
1.828559405940593852e+00,-1.608093716719914690e-01,1.277955271565495154e-02,-1.437699680511182188e-01,9.218225419664268117e+00,-1.510791366906474864e-01,3.575539568345323715e+00
1.833514851485148478e+00,-1.597444089456868943e-01,1.703940362087327104e-02,-1.405750798722044670e-01,9.143884892086331817e+00,-1.390887290167865664e-01,3.666666666666666519e+00
1.838470297029702882e+00,-1.608093716719914690e-01,1.597444089456868943e-02,-1.405750798722044670e-01,9.117505995203837088e+00,-1.678657074340527688e-01,3.709832134292565975e+00
1.843425742574257287e+00,-1.608093716719914690e-01,9.584664536741213658e-03,-1.416400425985090417e-01,9.100719424460431028e+00,-1.990407673860911386e-01,3.764988009592326268e+00
1.848381188118811691e+00,-1.608093716719914690e-01,-2.129925452609158880e-03,-1.416400425985090417e-01,9.071942446043165020e+00,-1.870503597122302186e-01,3.731414868105515481e+00
1.853336633663366317e+00,-1.608093716719914690e-01,-1.171458998935037341e-02,-1.437699680511182188e-01,9.043165467625899012e+00,-1.534772182254196538e-01,3.678657074340527799e+00
1.858292079207920722e+00,-1.640042598509052207e-01,-2.129925452609158706e-02,-1.427050053248136441e-01,9.033573141486810343e+00,-1.462829736211031240e-01,3.589928057553956720e+00
1.863247524752475126e+00,-1.629392971246006461e-01,-2.236421725239616520e-02,-1.395101171458998923e-01,9.098321342925659749e+00,-2.230215827338129508e-01,3.565947242206235046e+00
1.868202970297029530e+00,-1.640042598509052207e-01,-1.810436634717784918e-02,-1.437699680511182188e-01,9.184652278177457774e+00,-2.949640287769784153e-01,3.522781774580335590e+00
1.873158415841584157e+00,-1.661341853035143701e-01,-1.703940362087327104e-02,-1.533546325878594185e-01,9.182254196642686495e+00,-2.206235011990407557e-01,3.568345323741007213e+00
1.878113861386138561e+00,-1.650692225772097954e-01,-1.703940362087327104e-02,-1.565495207667731703e-01,9.139088729016785706e+00,-1.678657074340527688e-01,3.568345323741007213e+00
1.883069306930692965e+00,-1.597444089456868943e-01,-1.703940362087327104e-02,-1.522896698615548439e-01,9.122302158273381423e+00,-1.774580335731414937e-01,3.563549160671462879e+00
1.888024752475247370e+00,-1.533546325878594185e-01,-1.490947816826411129e-02,-1.458998935037273681e-01,9.148681055155876152e+00,-2.014388489208633060e-01,3.558752997601918544e+00
1.892980198019801996e+00,-1.512247071352502692e-01,-9.584664536741213658e-03,-1.416400425985090417e-01,9.211031175059952503e+00,-2.038369304556355011e-01,3.546762589928057707e+00
1.897935643564356401e+00,-1.512247071352502692e-01,-1.064962726304579353e-02,-1.448349307774227934e-01,9.211031175059952503e+00,-1.199040767386091166e-01,3.594724220623501054e+00
1.902891089108910805e+00,-1.554845580404685956e-01,-1.384451544195953142e-02,-1.416400425985090417e-01,9.172661870503597825e+00,-4.796163069544364527e-02,3.549160671462829875e+00
1.907846534653465209e+00,-1.597444089456868943e-01,-1.490947816826411129e-02,-1.320553780617678419e-01,9.153477218225420486e+00,-2.398081534772182263e-02,3.496402877697841749e+00
1.912801980198019614e+00,-1.661341853035143701e-01,-1.277955271565495154e-02,-1.235356762513312029e-01,9.172661870503597825e+00,-7.913669064748200810e-02,3.508393285371702586e+00
1.917757425742574240e+00,-1.778487752928647470e-01,-8.519701810436635520e-03,-1.214057507987220397e-01,9.201438848920863833e+00,-9.352517985611510931e-02,3.556354916067146377e+00
1.922712871287128644e+00,-1.927582534611288478e-01,-1.277955271565495154e-02,-1.235356762513312029e-01,9.170263788968824770e+00,-1.127098321342925591e-01,3.623501199040767506e+00
1.927668316831683049e+00,-2.076677316293929765e-01,-2.342917997870074681e-02,-1.203407880724174650e-01,9.129496402877697037e+00,-4.316546762589928282e-02,3.553956834532374209e+00
1.932623762376237453e+00,-2.257720979765708291e-01,-2.981895633652822258e-02,-1.160809371671991524e-01,9.088729016786571080e+00,-2.158273381294964141e-02,3.482014388489208745e+00
1.937579207920792079e+00,-2.406815761448349300e-01,-3.194888178913737886e-02,-1.086261980830670881e-01,9.119904076738608367e+00,-6.474820143884892076e-02,3.366906474820143824e+00
1.942534653465346484e+00,-2.577209797657081802e-01,-3.194888178913737886e-02,-1.022364217252396124e-01,9.184652278177457774e+00,-1.558752997601918489e-01,3.326139088729016979e+00
1.947490099009900888e+00,-2.758253461128860606e-01,-2.875399361022364098e-02,-1.022364217252396124e-01,9.244604316546762846e+00,-2.494004796163069582e-01,3.316546762589927866e+00
1.952445544554455292e+00,-2.875399361022364375e-01,-2.129925452609158706e-02,-1.128860489882854146e-01,9.273381294964028854e+00,-3.069544364508393075e-01,3.309352517985611364e+00
1.957400990099009919e+00,-2.992545260915868144e-01,-1.171458998935037341e-02,-1.256656017039403661e-01,9.270983213429255798e+00,-2.757793764988009655e-01,3.280575539568345356e+00
1.962356435643564323e+00,-3.056443024494142624e-01,1.064962726304579440e-03,-1.320553780617678419e-01,9.230215827338129841e+00,-2.470023980815347631e-01,3.318944844124700033e+00
1.967311881188118727e+00,-3.045793397231096877e-01,1.171458998935037341e-02,-1.331203407880724165e-01,9.199040767386090778e+00,-2.613908872901678504e-01,3.388489208633093330e+00
1.972267326732673132e+00,-2.971246006389776095e-01,1.810436634717784918e-02,-1.320553780617678419e-01,9.191846522781775164e+00,-2.853717026378896904e-01,3.474820143884892243e+00
1.977222772277227758e+00,-2.864749733759318628e-01,2.129925452609158706e-02,-1.309904153354632672e-01,9.170263788968824770e+00,-2.661870503597122406e-01,3.577937649880095883e+00
1.982178217821782162e+00,-2.779552715654952100e-01,1.703940362087327104e-02,-1.256656017039403661e-01,9.165467625899280435e+00,-2.541966426858512929e-01,3.573141486810551548e+00
1.987133663366336567e+00,-2.694355697550585571e-01,1.597444089456868943e-02,-1.214057507987220397e-01,9.122302158273381423e+00,-2.206235011990407557e-01,3.558752997601918544e+00
1.992089108910890971e+00,-2.598509052183173851e-01,1.384451544195953142e-02,-1.203407880724174650e-01,9.095923261390886694e+00,-2.254196642685851182e-01,3.649880095923261347e+00
1.997044554455445375e+00,-2.523961661341853069e-01,8.519701810436635520e-03,-1.160809371671991524e-01,9.103117505995204084e+00,-2.589928057553956831e-01,3.700239808153477306e+00
2.001999999999999780e+00,-2.481363152289669805e-01,-3.194888178913737886e-03,-1.192758253461128903e-01,9.076738609112709355e+00,-3.069544364508393075e-01,3.645083932853717013e+00
2.006955445544554184e+00,-2.449414270500532564e-01,-1.703940362087327104e-02,-1.246006389776357776e-01,9.095923261390886694e+00,-3.165467625899280324e-01,3.580335731414868050e+00
2.011910891089109032e+00,-2.417465388711395047e-01,-2.449414270500532495e-02,-1.309904153354632672e-01,9.086330935251798024e+00,-2.853717026378896904e-01,3.467625899280575741e+00
2.016866336633663437e+00,-2.428115015974440793e-01,-2.768903088391906284e-02,-1.373801916932907430e-01,9.091127098321342359e+00,-2.613908872901678504e-01,3.410071942446043280e+00
2.021821782178217841e+00,-2.481363152289669805e-01,-2.662406815761448470e-02,-1.427050053248136441e-01,9.146282973621103096e+00,-2.805755395683453002e-01,3.338129496402877816e+00
2.026777227722772245e+00,-2.545260915867944562e-01,-2.129925452609158706e-02,-1.501597444089456945e-01,9.191846522781775164e+00,-3.189448441247002553e-01,3.333333333333333481e+00
2.031732673267326650e+00,-2.598509052183173851e-01,-1.597444089456868943e-02,-1.629392971246006461e-01,9.249400479616307180e+00,-3.189448441247002553e-01,3.354916067146282987e+00
2.036688118811881054e+00,-2.694355697550585571e-01,-1.277955271565495154e-02,-1.799787007454738963e-01,9.158273381294964821e+00,-2.398081534772182333e-01,3.426858513189448452e+00
2.041643564356435459e+00,-2.758253461128860606e-01,-1.277955271565495154e-02,-1.895633652822151238e-01,9.040767386091127733e+00,-1.103117505995203779e-01,3.479616306954436578e+00
2.046599009900989863e+00,-2.779552715654952100e-01,-1.703940362087327104e-02,-1.874334398296059745e-01,9.002398081534773056e+00,-3.117505995203836977e-02,3.486810551558753080e+00
2.051554455445544711e+00,-2.811501597444089340e-01,-1.916932907348242732e-02,-1.799787007454738963e-01,9.064748201438849406e+00,-3.357314148681055099e-02,3.503597122302158251e+00
2.056509900990099116e+00,-2.854100106496272882e-01,-2.236421725239616520e-02,-1.778487752928647470e-01,9.110311750599519698e+00,-7.194244604316547137e-03,3.527577937649879924e+00
2.061465346534653520e+00,-2.864749733759318628e-01,-2.662406815761448470e-02,-1.746538871139510229e-01,9.127098321342925757e+00,5.275779376498800771e-02,3.517985611510791255e+00
2.066420792079207924e+00,-2.864749733759318628e-01,-2.981895633652822258e-02,-1.661341853035143701e-01,9.148681055155876152e+00,7.194244604316546443e-02,3.465227817745803574e+00
2.071376237623762329e+00,-2.832800851970180833e-01,-2.449414270500532495e-02,-1.544195953141639932e-01,9.131894484412470092e+00,5.995203836930455832e-02,3.455635491606714460e+00
2.076331683168316733e+00,-2.811501597444089340e-01,-1.703940362087327104e-02,-1.427050053248136441e-01,9.165467625899280435e+00,-1.438848920863309427e-02,3.503597122302158251e+00
2.081287128712871137e+00,-2.800851970181043593e-01,-1.277955271565495154e-02,-1.395101171458998923e-01,9.206235011990408168e+00,-8.393285371702638442e-02,3.537170263788969038e+00
2.086242574257425542e+00,-2.779552715654952100e-01,-1.384451544195953142e-02,-1.427050053248136441e-01,9.158273381294964821e+00,-9.112709832134292809e-02,3.541966426858513373e+00
2.091198019801979946e+00,-2.779552715654952100e-01,-1.916932907348242732e-02,-1.427050053248136441e-01,9.143884892086331817e+00,-9.832134292565947176e-02,3.467625899280575741e+00
2.096153465346534794e+00,-2.811501597444089340e-01,-1.810436634717784918e-02,-1.469648562300319428e-01,9.131894484412470092e+00,-1.294964028776978415e-01,3.426858513189448452e+00
2.101108910891089199e+00,-2.811501597444089340e-01,-1.277955271565495154e-02,-1.512247071352502692e-01,9.146282973621103096e+00,-1.414868105515587615e-01,3.441247002398081456e+00
2.106064356435643603e+00,-2.822151224707135087e-01,-1.384451544195953142e-02,-1.586794462193823196e-01,9.153477218225420486e+00,-1.486810551558752913e-01,3.520383693045563422e+00
2.111019801980198007e+00,-2.843450479233226580e-01,-1.810436634717784918e-02,-1.682641107561235472e-01,9.163069544364509156e+00,-1.342925659472422040e-01,3.529976019184652092e+00
2.115975247524752412e+00,-2.854100106496272882e-01,-2.555910543130990309e-02,-1.746538871139510229e-01,9.127098321342925757e+00,-4.796163069544364527e-02,3.510791366906474753e+00
2.120930693069306816e+00,-2.886048988285410122e-01,-2.768903088391906284e-02,-1.778487752928647470e-01,9.122302158273381423e+00,2.398081534772182090e-03,3.436450839328537121e+00
2.125886138613861220e+00,-2.896698615548455868e-01,-2.768903088391906284e-02,-1.778487752928647470e-01,9.124700239808152702e+00,4.076738609112710160e-02,3.388489208633093330e+00
2.130841584158415625e+00,-2.928647497337593109e-01,-2.449414270500532495e-02,-1.757188498402555976e-01,9.158273381294964821e+00,8.153477218225420320e-02,3.347721822541966485e+00
2.135797029702970473e+00,-2.971246006389776095e-01,-1.810436634717784918e-02,-1.735889243876464205e-01,9.155875299760191766e+00,1.414868105515587615e-01,3.350119904076738653e+00
2.140752475247524877e+00,-3.067092651757188371e-01,-1.810436634717784918e-02,-1.714589989350372712e-01,9.095923261390886694e+00,2.350119904076738708e-01,3.364508393285371657e+00
2.145707920792079282e+00,-3.152289669861554899e-01,-1.810436634717784918e-02,-1.629392971246006461e-01,9.079136690647482411e+00,2.733812949640287981e-01,3.340527577937649983e+00
2.150663366336633686e+00,-3.194888178913737886e-01,-1.384451544195953142e-02,-1.512247071352502692e-01,9.124700239808152702e+00,2.637889688249400733e-01,3.309352517985611364e+00
2.155618811881188090e+00,-3.258785942492012921e-01,-5.324813631522896766e-03,-1.405750798722044670e-01,9.223021582733812451e+00,2.326139088729016757e-01,3.266187050359712352e+00
2.160574257425742495e+00,-3.333333333333333148e-01,3.194888178913737886e-03,-1.299254526091586925e-01,9.251798561151078459e+00,1.894484412470023860e-01,3.251798561151079348e+00
2.165529702970296899e+00,-3.397231096911608184e-01,1.490947816826411129e-02,-1.246006389776357776e-01,9.237410071942445455e+00,1.127098321342925591e-01,3.258992805755395850e+00
2.170485148514851304e+00,-3.439829605963791170e-01,2.768903088391906284e-02,-1.235356762513312029e-01,9.194244604316546443e+00,6.954436450839328321e-02,3.280575539568345356e+00
2.175440594059405708e+00,-3.429179978700745424e-01,4.046858359957401785e-02,-1.267305644302449408e-01,9.177458033573142160e+00,7.194244604316546443e-02,3.393285371702638109e+00
2.180396039603960556e+00,-3.450479233226836917e-01,4.259850905218317413e-02,-1.277955271565495154e-01,9.110311750599519698e+00,4.796163069544364527e-02,3.489208633093525247e+00
2.185351485148514961e+00,-3.429179978700745424e-01,3.940362087326943624e-02,-1.246006389776357776e-01,9.110311750599519698e+00,4.556354916067146404e-02,3.484412470023980912e+00
2.190306930693069365e+00,-3.365282215122470943e-01,3.727369542066027996e-02,-1.256656017039403661e-01,9.112709832134292753e+00,4.796163069544364527e-02,3.426858513189448452e+00
2.195262376237623769e+00,-3.333333333333333148e-01,3.833865814696485463e-02,-1.214057507987220397e-01,9.131894484412470092e+00,1.031175059952038342e-01,3.381294964028776828e+00
2.200217821782178174e+00,-3.280085197018104415e-01,4.685835995740149362e-02,-1.203407880724174650e-01,9.163069544364509156e+00,1.007194244604316530e-01,3.362110311750599489e+00
2.205173267326732578e+00,-3.258785942492012921e-01,5.324813631522896940e-02,-1.160809371671991524e-01,9.167865707434053490e+00,9.832134292565947176e-02,3.395683453237410276e+00
2.210128712871286982e+00,-3.258785942492012921e-01,5.963791267305644517e-02,-1.182108626198083018e-01,9.151079136690647431e+00,9.112709832134292809e-02,3.388489208633093330e+00
2.215084158415841387e+00,-3.290734824281150162e-01,6.922257720979765883e-02,-1.182108626198083018e-01,9.131894484412470092e+00,1.318944844124700366e-01,3.453237410071942293e+00
2.220039603960395791e+00,-3.301384451544195908e-01,7.348242811501597138e-02,-1.182108626198083018e-01,9.122302158273381423e+00,1.702637889688249362e-01,3.494004796163069582e+00
2.224995049504950639e+00,-3.312034078807241655e-01,7.561235356762513460e-02,-1.182108626198083018e-01,9.098321342925659749e+00,2.182254196642685884e-01,3.505995203836930418e+00
2.229950495049505044e+00,-3.301384451544195908e-01,7.667731629392970927e-02,-1.086261980830670881e-01,9.074340527577938076e+00,2.494004796163069582e-01,3.498800959232613916e+00
2.234905940594059448e+00,-3.333333333333333148e-01,7.774227902023429781e-02,-1.033013844515442009e-01,9.124700239808152702e+00,2.805755395683453002e-01,3.474820143884892243e+00
2.239861386138613852e+00,-3.365282215122470943e-01,8.626198083067092293e-02,-9.904153354632587447e-02,9.158273381294964821e+00,2.901678657074340251e-01,3.486810551558753080e+00
2.244816831683168257e+00,-3.407880724174653930e-01,9.584664536741213658e-02,-9.158679446219382403e-02,9.203836930455635112e+00,2.541966426858512929e-01,3.510791366906474753e+00
2.249772277227722661e+00,-3.439829605963791170e-01,1.022364217252396124e-01,-8.306709265175718504e-02,9.187050359712230829e+00,2.254196642685851182e-01,3.565947242206235046e+00
2.254727722772277065e+00,-3.482428115015974712e-01,1.064962726304579388e-01,-7.880724174653887248e-02,9.196642685851319499e+00,2.038369304556355011e-01,3.630695443645084008e+00
2.259683168316831470e+00,-3.482428115015974712e-01,1.075612353567625135e-01,-7.880724174653887248e-02,9.143884892086331817e+00,1.966426858513189435e-01,3.719424460431654644e+00
2.264638613861386318e+00,-3.461128860489882664e-01,1.054313099041533502e-01,-7.774227902023429781e-02,9.069544364508393741e+00,1.966426858513189435e-01,3.805755395683453113e+00
2.269594059405940722e+00,-3.450479233226836917e-01,9.371671991480298725e-02,-7.348242811501597138e-02,9.011990407673861725e+00,1.990407673860911386e-01,3.848920863309352569e+00
2.274549504950495127e+00,-3.386581469648562437e-01,7.667731629392970927e-02,-6.709265175718849561e-02,9.031175059952039064e+00,1.175059952038369354e-01,3.848920863309352569e+00
2.279504950495049531e+00,-3.343982960596378895e-01,6.176783812566560145e-02,-6.709265175718849561e-02,9.093525179856115415e+00,3.597122302158273222e-02,3.829736211031175230e+00
2.284460396039603935e+00,-3.343982960596378895e-01,5.111821086261980618e-02,-7.774227902023429781e-02,9.093525179856115415e+00,0.000000000000000000e+00,3.851318944844124736e+00
2.289415841584158340e+00,-3.258785942492012921e-01,3.940362087326943624e-02,-8.413205537806177359e-02,9.107913669064748419e+00,-2.637889688249400386e-02,3.791366906474820109e+00
2.294371287128712744e+00,-3.205537806176783633e-01,3.088391906283280072e-02,-8.839190628328008614e-02,9.083932853717026745e+00,-6.235011990407673954e-02,3.697841726618705138e+00
2.299326732673267148e+00,-3.130990415335463406e-01,2.981895633652822258e-02,-9.158679446219382403e-02,9.103117505995204084e+00,-1.079136690647481966e-01,3.654676258992805682e+00
2.304282178217821553e+00,-3.067092651757188371e-01,3.088391906283280072e-02,-1.022364217252396124e-01,9.172661870503597825e+00,-1.342925659472422040e-01,3.676258992805755188e+00
2.309237623762376401e+00,-3.056443024494142624e-01,2.981895633652822258e-02,-1.160809371671991524e-01,9.179856115107913439e+00,-1.247002398081534791e-01,3.745803357314148485e+00
2.314193069306930806e+00,-3.045793397231096877e-01,2.981895633652822258e-02,-1.277955271565495154e-01,9.119904076738608367e+00,4.796163069544364180e-03,3.741007194244604150e+00
2.319148514851485210e+00,-3.024494142705005384e-01,2.768903088391906284e-02,-1.309904153354632672e-01,9.052757793764987682e+00,8.153477218225420320e-02,3.786570743405275774e+00
2.324103960396039614e+00,-3.056443024494142624e-01,2.023429179978700893e-02,-1.288604898828540901e-01,9.028776978417266008e+00,1.199040767386091166e-01,3.803357314148680945e+00
2.329059405940594019e+00,-3.067092651757188371e-01,1.277955271565495154e-02,-1.288604898828540901e-01,9.026378896882494729e+00,1.175059952038369354e-01,3.796163069544364443e+00
2.334014851485148423e+00,-3.173588924387646393e-01,2.129925452609158880e-03,-1.341853035143769912e-01,9.083932853717026745e+00,8.872901678657074687e-02,3.788968824940047941e+00
2.338970297029702827e+00,-3.290734824281150162e-01,-5.324813631522896766e-03,-1.395101171458998923e-01,9.088729016786571080e+00,9.352517985611510931e-02,3.733812949640287648e+00
2.343925742574257232e+00,-3.429179978700745424e-01,-1.277955271565495154e-02,-1.458998935037273681e-01,9.155875299760191766e+00,7.194244604316546443e-02,3.649880095923261347e+00
2.348881188118812080e+00,-3.493077742279020459e-01,-1.384451544195953142e-02,-1.480298189563365174e-01,9.160671462829736100e+00,4.796163069544364527e-02,3.546762589928057707e+00
2.353836633663366484e+00,-3.556975505857294939e-01,-9.584664536741213658e-03,-1.533546325878594185e-01,9.199040767386090778e+00,-3.357314148681055099e-02,3.482014388489208745e+00
2.358792079207920889e+00,-3.578274760383386432e-01,-1.064962726304579440e-03,-1.629392971246006461e-01,9.266187050359711463e+00,-1.031175059952038342e-01,3.472422062350120076e+00
2.363747524752475293e+00,-3.578274760383386432e-01,8.519701810436635520e-03,-1.746538871139510229e-01,9.273381294964028854e+00,-9.112709832134292809e-02,3.498800959232613916e+00
2.368702970297029697e+00,-3.588924387646432179e-01,1.490947816826411129e-02,-1.821086261980830734e-01,9.225419664268585507e+00,-2.158273381294964141e-02,3.494004796163069582e+00
2.373658415841584102e+00,-3.567625133120340686e-01,2.555910543130990309e-02,-1.842385516506922227e-01,9.151079136690647431e+00,-9.592326139088728360e-03,3.474820143884892243e+00
2.378613861386138506e+00,-3.503727369542066206e-01,3.407880724174654208e-02,-1.842385516506922227e-01,9.139088729016785706e+00,-3.117505995203836977e-02,3.515587529976019088e+00
2.383569306930692910e+00,-3.450479233226836917e-01,4.366347177848775574e-02,-1.842385516506922227e-01,9.117505995203837088e+00,-3.836930455635491344e-02,3.616306954436451004e+00
2.388524752475247315e+00,-3.439829605963791170e-01,4.472843450479233041e-02,-1.906283280085196985e-01,9.083932853717026745e+00,-9.592326139088728360e-03,3.719424460431654644e+00
2.393480198019802163e+00,-3.407880724174653930e-01,3.620873269435569836e-02,-1.927582534611288478e-01,9.086330935251798024e+00,3.836930455635491344e-02,3.690647482014388636e+00
2.398435643564356567e+00,-3.397231096911608184e-01,3.301384451544196047e-02,-1.938232161874334503e-01,9.122302158273381423e+00,7.194244604316546443e-02,3.604316546762589724e+00
2.403391089108910972e+00,-3.429179978700745424e-01,3.833865814696485463e-02,-1.927582534611288478e-01,9.124700239808152702e+00,1.151079136690647542e-01,3.577937649880095883e+00
2.408346534653465376e+00,-3.461128860489882664e-01,4.472843450479233041e-02,-1.927582534611288478e-01,9.139088729016785706e+00,1.558752997601918489e-01,3.609112709832134502e+00
2.413301980198019780e+00,-3.546325878594249192e-01,4.685835995740149362e-02,-1.948881789137380249e-01,9.117505995203837088e+00,1.558752997601918489e-01,3.681055155875299967e+00
2.418257425742574185e+00,-3.620873269435569974e-01,4.792332268370606829e-02,-1.959531416400425996e-01,9.153477218225420486e+00,1.390887290167865664e-01,3.688249400479616469e+00
2.423212871287128589e+00,-3.642172523961661468e-01,4.792332268370606829e-02,-2.002129925452609260e-01,9.155875299760191766e+00,8.153477218225420320e-02,3.724220623501198979e+00
2.428168316831682993e+00,-3.663471778487752961e-01,4.898828541001064990e-02,-2.076677316293929765e-01,9.160671462829736100e+00,9.832134292565947176e-02,3.757793764988009766e+00
2.433123762376237842e+00,-3.652822151224707214e-01,5.218317358892438779e-02,-2.108626198083067005e-01,9.093525179856115415e+00,1.798561151079136611e-01,3.820143884892086117e+00
2.438079207920792246e+00,-3.578274760383386432e-01,4.579339723109691201e-02,-2.076677316293929765e-01,9.014388489208633004e+00,2.182254196642685884e-01,3.892086330935251581e+00
2.443034653465346651e+00,-3.514376996805111952e-01,3.301384451544196047e-02,-1.970181043663471743e-01,9.059952038369305072e+00,2.254196642685851182e-01,3.860911270983213406e+00
2.447990099009901055e+00,-3.482428115015974712e-01,2.768903088391906284e-02,-1.916932907348242732e-01,9.148681055155876152e+00,1.654676258992805737e-01,3.808153477218225280e+00
2.452945544554455459e+00,-3.471778487752928410e-01,2.662406815761448470e-02,-1.906283280085196985e-01,9.143884892086331817e+00,1.534772182254196538e-01,3.805755395683453113e+00
2.457900990099009864e+00,-3.461128860489882664e-01,2.342917997870074681e-02,-1.895633652822151238e-01,9.131894484412470092e+00,1.654676258992805737e-01,3.829736211031175230e+00
2.462856435643564268e+00,-3.461128860489882664e-01,1.916932907348242732e-02,-1.874334398296059745e-01,9.124700239808152702e+00,1.558752997601918489e-01,3.812949640287769615e+00
2.467811881188118672e+00,-3.471778487752928410e-01,1.384451544195953142e-02,-1.853035143769967974e-01,9.148681055155876152e+00,1.199040767386091166e-01,3.764988009592326268e+00
2.472767326732673077e+00,-3.514376996805111952e-01,1.171458998935037341e-02,-1.863684771033013721e-01,9.191846522781775164e+00,1.127098321342925591e-01,3.738609112709831983e+00
2.477722772277227925e+00,-3.556975505857294939e-01,1.490947816826411129e-02,-1.938232161874334503e-01,9.218225419664268117e+00,1.414868105515587615e-01,3.743405275779376318e+00
2.482678217821782329e+00,-3.652822151224707214e-01,1.490947816826411129e-02,-2.002129925452609260e-01,9.163069544364509156e+00,2.278177458033573133e-01,3.796163069544364443e+00
2.487633663366336734e+00,-3.716719914802981695e-01,1.064962726304579353e-02,-1.948881789137380249e-01,9.107913669064748419e+00,3.285371702637889801e-01,3.815347721822541782e+00
2.492589108910891138e+00,-3.780617678381256730e-01,2.129925452609158880e-03,-1.853035143769967974e-01,9.076738609112709355e+00,3.669064748201438797e-01,3.841726618705036067e+00
2.497544554455445542e+00,-3.887113951011714752e-01,2.129925452609158880e-03,-1.799787007454738963e-01,9.107913669064748419e+00,3.021582733812949728e-01,3.872901678657074243e+00
2.502499999999999947e+00,-4.004259850905218521e-01,-2.129925452609158880e-03,-1.789137380191693216e-01,9.146282973621103096e+00,2.589928057553956831e-01,3.870503597122302075e+00
2.507455445544554351e+00,-4.153354632587859530e-01,-1.490947816826411129e-02,-1.863684771033013721e-01,9.141486810551558762e+00,2.446043165467625957e-01,3.836930455635491732e+00
2.512410891089108755e+00,-4.217252396166134010e-01,-2.342917997870074681e-02,-1.863684771033013721e-01,9.139088729016785706e+00,2.278177458033573133e-01,3.743405275779376318e+00
2.517366336633663604e+00,-4.238551650692225503e-01,-2.129925452609158706e-02,-1.874334398296059745e-01,9.136690647482014427e+00,2.062350119904076684e-01,3.705035971223021640e+00
2.522321782178218008e+00,-4.227902023429179756e-01,-1.916932907348242732e-02,-1.895633652822151238e-01,9.155875299760191766e+00,1.318944844124700366e-01,3.781774580335731439e+00
2.527277227722772412e+00,-4.185303514376996770e-01,-2.129925452609158706e-02,-1.927582534611288478e-01,9.160671462829736100e+00,7.673860911270982688e-02,3.764988009592326268e+00
2.532232673267326817e+00,-4.142705005324813783e-01,-2.449414270500532495e-02,-2.034078807241746500e-01,9.153477218225420486e+00,8.153477218225420320e-02,3.685851318944844301e+00
2.537188118811881221e+00,-4.132055378061768036e-01,-2.342917997870074681e-02,-2.119275825346112752e-01,9.136690647482014427e+00,1.247002398081534791e-01,3.642685851318944845e+00
2.542143564356435625e+00,-4.100106496272630241e-01,-1.916932907348242732e-02,-2.193823216187433534e-01,9.141486810551558762e+00,1.630695443645084064e-01,3.652278177458033515e+00
2.547099009900990030e+00,-4.078807241746538748e-01,-1.277955271565495154e-02,-2.236421725239616520e-01,9.143884892086331817e+00,1.774580335731414937e-01,3.729016786570743314e+00
2.552054455445544434e+00,-4.057507987220447254e-01,-1.064962726304579353e-02,-2.300319488817891278e-01,9.124700239808152702e+00,1.990407673860911386e-01,3.750599520383693264e+00
2.557009900990098838e+00,-4.057507987220447254e-01,-1.171458998935037341e-02,-2.374866879659212060e-01,9.069544364508393741e+00,2.517985611510791255e-01,3.812949640287769615e+00
2.561965346534653687e+00,-4.089456869009584494e-01,-1.597444089456868943e-02,-2.449414270500532564e-01,9.002398081534773056e+00,3.453237410071942626e-01,3.817745803357313950e+00
2.566920792079208091e+00,-4.057507987220447254e-01,-2.342917997870074681e-02,-2.492012779552715551e-01,8.990407673860911331e+00,3.956834532374100544e-01,3.803357314148680945e+00
2.571876237623762496e+00,-4.078807241746538748e-01,-2.768903088391906284e-02,-2.470713525026624058e-01,9.007194244604317390e+00,4.460431654676259017e-01,3.764988009592326268e+00
2.576831683168316900e+00,-4.110756123535675988e-01,-2.662406815761448470e-02,-2.406815761448349300e-01,8.980815347721822661e+00,4.628297362110311841e-01,3.810551558752997447e+00
2.581787128712871304e+00,-4.121405750798722289e-01,-2.875399361022364098e-02,-2.406815761448349300e-01,8.971223021582733992e+00,4.772182254196642437e-01,3.836930455635491732e+00
2.586742574257425709e+00,-4.132055378061768036e-01,-3.514376996805111675e-02,-2.406815761448349300e-01,8.947242206235012318e+00,5.059952038369304184e-01,3.800959232613908778e+00
2.591698019801980113e+00,-4.185303514376996770e-01,-3.833865814696485463e-02,-2.385516506922257807e-01,8.949640287769783598e+00,4.532374100719424592e-01,3.731414868105515481e+00
2.596653465346534517e+00,-4.217252396166134010e-01,-4.046858359957401785e-02,-2.396166134185303553e-01,8.988009592326138275e+00,4.724220623501199090e-01,3.702637889688249473e+00
2.601608910891089366e+00,-4.206602768903088263e-01,-4.046858359957401785e-02,-2.385516506922257807e-01,9.004796163069544335e+00,5.035971223021582510e-01,3.678657074340527799e+00
2.606564356435643770e+00,-4.227902023429179756e-01,-3.727369542066027996e-02,-2.385516506922257807e-01,8.976019184652278327e+00,5.179856115107913661e-01,3.637889688249400511e+00
2.611519801980198174e+00,-4.227902023429179756e-01,-3.514376996805111675e-02,-2.364217252396166036e-01,8.985611510791366996e+00,5.419664268585131506e-01,3.597122302158273222e+00
2.616475247524752579e+00,-4.238551650692225503e-01,-3.194888178913737886e-02,-2.342917997870074542e-01,9.040767386091127733e+00,4.652278177458033515e-01,3.582733812949640217e+00
2.621430693069306983e+00,-4.249201277955271805e-01,-2.875399361022364098e-02,-2.406815761448349300e-01,9.103117505995204084e+00,4.292565947242206192e-01,3.517985611510791255e+00
2.626386138613861387e+00,-4.238551650692225503e-01,-2.342917997870074681e-02,-2.502662406815761575e-01,9.131894484412470092e+00,4.436450839328537343e-01,3.491606714628297414e+00
2.631341584158415792e+00,-4.206602768903088263e-01,-1.277955271565495154e-02,-2.523961661341853069e-01,9.069544364508393741e+00,5.443645083932853179e-01,3.513189448441246920e+00
2.636297029702970196e+00,-4.153354632587859530e-01,-2.129925452609158880e-03,-2.460063897763578311e-01,9.016786570743406060e+00,6.139088729016786150e-01,3.544364508393285540e+00
2.641252475247524600e+00,-4.089456869009584494e-01,1.064962726304579353e-02,-2.385516506922257807e-01,8.990407673860911331e+00,6.378896882494005105e-01,3.633093525179856176e+00
2.646207920792079449e+00,-4.057507987220447254e-01,1.384451544195953142e-02,-2.310969116080937302e-01,9.028776978417266008e+00,5.899280575539568305e-01,3.697841726618705138e+00
2.651163366336633853e+00,-3.982960596379126472e-01,1.277955271565495154e-02,-2.310969116080937302e-01,9.047961630695443347e+00,5.923261390887289979e-01,3.750599520383693264e+00
2.656118811881188257e+00,-3.908413205537806245e-01,1.064962726304579353e-02,-2.332268370607028796e-01,8.983213429256593940e+00,6.474820143884891799e-01,3.769784172661870603e+00
2.661074257425742662e+00,-3.865814696485623259e-01,9.584664536741213658e-03,-2.300319488817891278e-01,8.856115107913668183e+00,7.122302158273381423e-01,3.796163069544364443e+00
2.666029702970297066e+00,-3.801916932907348223e-01,7.454739084132055646e-03,-2.204472843450479280e-01,8.810551558752997892e+00,7.242206235011990900e-01,3.788968824940047941e+00
2.670985148514851470e+00,-3.695420660276890201e-01,0.000000000000000000e+00,-2.108626198083067005e-01,8.930455635491606259e+00,6.834532374100719121e-01,3.738609112709831983e+00
2.675940594059405875e+00,-3.631522896698615721e-01,-2.129925452609158880e-03,-2.108626198083067005e-01,9.057553956834532016e+00,6.450839328537170125e-01,3.714628297362110310e+00
2.680896039603960279e+00,-3.567625133120340686e-01,0.000000000000000000e+00,-2.161874334398296016e-01,9.026378896882494729e+00,7.098321342925659749e-01,3.693045563549160804e+00
2.685851485148515128e+00,-3.546325878594249192e-01,1.064962726304579440e-03,-2.108626198083067005e-01,8.942446043165467984e+00,8.537170263788969038e-01,3.690647482014388636e+00
2.690806930693069532e+00,-3.493077742279020459e-01,0.000000000000000000e+00,-1.916932907348242732e-01,8.877697841726618577e+00,9.040767386091127511e-01,3.654676258992805682e+00
2.695762376237623936e+00,-3.461128860489882664e-01,-1.064962726304579440e-03,-1.757188498402555976e-01,8.870503597122302963e+00,8.153477218225420042e-01,3.601918465227817556e+00
2.700717821782178341e+00,-3.418530351437699677e-01,-3.194888178913737886e-03,-1.640042598509052207e-01,8.964028776978416602e+00,7.218225419664268117e-01,3.573141486810551548e+00
2.705673267326732745e+00,-3.365282215122470943e-01,-8.519701810436635520e-03,-1.629392971246006461e-01,9.055155875299760737e+00,7.026378896882493619e-01,3.496402877697841749e+00
2.710628712871287149e+00,-3.343982960596378895e-01,-8.519701810436635520e-03,-1.597444089456868943e-01,9.095923261390886694e+00,7.170263788968824770e-01,3.359712230215827322e+00
2.715584158415841554e+00,-3.226837060702875126e-01,6.389776357827475772e-03,-1.490947816826411199e-01,9.100719424460431028e+00,6.666666666666666297e-01,3.239808153477218067e+00
2.720539603960395958e+00,-3.120340788072417659e-01,3.088391906283280072e-02,-1.416400425985090417e-01,9.175059952038369104e+00,5.419664268585131506e-01,3.218225419664268561e+00
2.725495049504950362e+00,-3.024494142705005384e-01,5.324813631522896940e-02,-1.437699680511182188e-01,9.247002398081534125e+00,3.932853717026378870e-01,3.215827338129496393e+00
2.730450495049505211e+00,-2.896698615548455868e-01,7.241746538871139671e-02,-1.533546325878594185e-01,9.263788968824940184e+00,3.117505995203836977e-01,3.297362110311750527e+00
2.735405940594059615e+00,-2.736954206602769113e-01,8.732694355697551147e-02,-1.693290734824281218e-01,9.187050359712230829e+00,3.237410071942445899e-01,3.350119904076738653e+00
2.740361386138614019e+00,-2.587859424920127549e-01,1.022364217252396124e-01,-1.821086261980830734e-01,9.088729016786571080e+00,3.621103117505995450e-01,3.446043165467625791e+00
2.745316831683168424e+00,-2.396166134185303553e-01,1.107561235356762513e-01,-1.863684771033013721e-01,9.055155875299760737e+00,4.508393285371702364e-01,3.525179856115107757e+00
2.750272277227722828e+00,-2.279020234291799785e-01,1.150159744408945639e-01,-1.895633652822151238e-01,9.019184652278177339e+00,5.179856115107913661e-01,3.705035971223021640e+00
2.755227722772277232e+00,-2.172523961661341763e-01,1.086261980830670881e-01,-1.948881789137380249e-01,8.971223021582733992e+00,5.731414868105515481e-01,3.827338129496403063e+00
2.760183168316831637e+00,-2.108626198083067005e-01,9.797657082002129980e-02,-1.991480298189563236e-01,8.937649880095923649e+00,6.258992805755395628e-01,3.851318944844124736e+00
2.765138613861386041e+00,-2.097976570820021258e-01,8.200212992545261037e-02,-1.991480298189563236e-01,8.896882494004795916e+00,7.026378896882493619e-01,3.870503597122302075e+00
2.770094059405940889e+00,-2.066027689030884018e-01,7.135250266240682204e-02,-1.948881789137380249e-01,8.935251798561150594e+00,7.074340527577938076e-01,3.834532374100719565e+00
2.775049504950495294e+00,-2.055378061767837994e-01,5.963791267305644517e-02,-1.980830670926517489e-01,8.985611510791366996e+00,7.002398081534771945e-01,3.812949640287769615e+00
2.780004950495049698e+00,-2.066027689030884018e-01,5.431309904153354406e-02,-2.002129925452609260e-01,9.035971223021583398e+00,7.697841726618704916e-01,3.822541966426858728e+00
2.784960396039604102e+00,-2.108626198083067005e-01,4.685835995740149362e-02,-1.970181043663471743e-01,8.995203836930455665e+00,8.920863309352518034e-01,3.839328537170263900e+00
2.789915841584158507e+00,-2.129925452609158776e-01,3.833865814696485463e-02,-1.853035143769967974e-01,9.014388489208633004e+00,9.784172661870503829e-01,3.772182254196642770e+00
2.794871287128712911e+00,-2.140575079872204523e-01,3.407880724174654208e-02,-1.714589989350372712e-01,9.064748201438849406e+00,9.328537170263788703e-01,3.661870503597122184e+00
2.799826732673267315e+00,-2.161874334398296016e-01,4.153354632587859252e-02,-1.640042598509052207e-01,9.127098321342925757e+00,8.896882494004796360e-01,3.669064748201438686e+00
2.804782178217821720e+00,-2.183173588924387509e-01,4.579339723109691201e-02,-1.533546325878594185e-01,9.158273381294964821e+00,8.705035971223021862e-01,3.714628297362110310e+00
2.809737623762376124e+00,-2.151224707135250269e-01,4.685835995740149362e-02,-1.405750798722044670e-01,9.153477218225420486e+00,8.465227817745802907e-01,3.707434052757793808e+00
2.814693069306930973e+00,-2.044728434504792247e-01,4.792332268370606829e-02,-1.320553780617678419e-01,9.153477218225420486e+00,7.793764988009592720e-01,3.633093525179856176e+00
2.819648514851485377e+00,-1.906283280085196985e-01,5.431309904153354406e-02,-1.224707135250266282e-01,9.187050359712230829e+00,6.858513189448440794e-01,3.654676258992805682e+00
2.824603960396039781e+00,-1.767838125665601723e-01,6.070287539936101984e-02,-1.182108626198083018e-01,9.182254196642686495e+00,6.666666666666666297e-01,3.721822541966426812e+00
2.829559405940594186e+00,-1.618743343982960714e-01,6.176783812566560145e-02,-1.150159744408945639e-01,9.208633093525179447e+00,7.410071942446042614e-01,3.788968824940047941e+00
2.834514851485148590e+00,-1.469648562300319428e-01,5.644302449414270728e-02,-1.107561235356762513e-01,9.179856115107913439e+00,8.249400479616306736e-01,3.796163069544364443e+00
2.839470297029702994e+00,-1.341853035143769912e-01,5.857294994675186356e-02,-9.691160809371672513e-02,9.170263788968824770e+00,8.513189448441247364e-01,3.781774580335731439e+00
2.844425742574257399e+00,-1.246006389776357776e-01,6.070287539936101984e-02,-8.200212992545261037e-02,9.129496402877697037e+00,8.561151079136690711e-01,3.820143884892086117e+00
2.849381188118811803e+00,-1.224707135250266282e-01,6.283280085197018305e-02,-6.922257720979765883e-02,9.103117505995204084e+00,8.129496402877698369e-01,3.918465227817745866e+00
2.854336633663366651e+00,-1.256656017039403661e-01,5.111821086261980618e-02,-6.283280085197018305e-02,9.067146282973620686e+00,8.201438848920863389e-01,4.002398081534772167e+00
2.859292079207921056e+00,-1.309904153354632672e-01,3.301384451544196047e-02,-5.750798722044728195e-02,9.000000000000000000e+00,8.800959232613908556e-01,4.021582733812949506e+00
2.864247524752475460e+00,-1.373801916932907430e-01,1.916932907348242732e-02,-4.472843450479233041e-02,8.966426858513189657e+00,9.064748201438849184e-01,3.942446043165467540e+00
2.869202970297029864e+00,-1.427050053248136441e-01,6.389776357827475772e-03,-2.768903088391906284e-02,9.040767386091127733e+00,8.633093525179855732e-01,3.860911270983213406e+00
2.874158415841584269e+00,-1.512247071352502692e-01,1.064962726304579440e-03,-1.277955271565495154e-02,9.071942446043165020e+00,7.505995203836930418e-01,3.841726618705036067e+00
2.879113861386138673e+00,-1.565495207667731703e-01,-3.194888178913737886e-03,-7.454739084132055646e-03,9.105515587529975363e+00,5.971223021582733326e-01,3.829736211031175230e+00
2.884069306930693077e+00,-1.618743343982960714e-01,-1.384451544195953142e-02,-7.454739084132055646e-03,9.088729016786571080e+00,4.988009592326139163e-01,3.743405275779376318e+00
2.889024752475247482e+00,-1.576144834930777450e-01,-1.810436634717784918e-02,-1.277955271565495154e-02,9.139088729016785706e+00,4.100719424460431695e-01,3.563549160671462879e+00
2.893980198019801886e+00,-1.458998935037273681e-01,-5.324813631522896766e-03,-1.703940362087327104e-02,9.167865707434053490e+00,2.901678657074340251e-01,3.472422062350120076e+00
2.898935643564356734e+00,-1.288604898828540901e-01,7.454739084132055646e-03,-2.555910543130990309e-02,9.206235011990408168e+00,1.870503597122302186e-01,3.517985611510791255e+00
2.903891089108911139e+00,-1.086261980830670881e-01,1.916932907348242732e-02,-3.301384451544196047e-02,9.285371702637888802e+00,1.127098321342925591e-01,3.517985611510791255e+00
2.908846534653465543e+00,-8.306709265175718504e-02,3.194888178913737886e-02,-4.153354632587859252e-02,9.242206235011989790e+00,1.247002398081534791e-01,3.489208633093525247e+00
2.913801980198019947e+00,-5.537806176783812567e-02,4.472843450479233041e-02,-5.218317358892438779e-02,9.175059952038369104e+00,2.014388489208633060e-01,3.503597122302158251e+00
2.918757425742574352e+00,-3.301384451544196047e-02,5.644302449414270728e-02,-5.431309904153354406e-02,9.110311750599519698e+00,3.477218225419664299e-01,3.546762589928057707e+00
2.923712871287128756e+00,-2.023429179978700893e-02,6.070287539936101984e-02,-5.537806176783812567e-02,9.107913669064748419e+00,3.812949640287769948e-01,3.582733812949640217e+00
2.928668316831683160e+00,-1.277955271565495154e-02,5.750798722044728195e-02,-5.644302449414270728e-02,9.136690647482014427e+00,3.908872901678657197e-01,3.582733812949640217e+00
2.933623762376237565e+00,-7.454739084132055646e-03,5.750798722044728195e-02,-5.750798722044728195e-02,9.177458033573142160e+00,4.628297362110311841e-01,3.561151079136690711e+00
2.938579207920791969e+00,-5.324813631522896766e-03,6.602768903088392094e-02,-5.750798722044728195e-02,9.179856115107913439e+00,5.155875299760191988e-01,3.563549160671462879e+00
2.943534653465346818e+00,-1.064962726304579440e-03,7.454739084132055993e-02,-5.005324813631523151e-02,9.134292565947241371e+00,6.354916067146283432e-01,3.635491606714628343e+00
2.948490099009901222e+00,-1.064962726304579440e-03,7.667731629392970927e-02,-3.727369542066027996e-02,9.122302158273381423e+00,6.426858513189448452e-01,3.709832134292565975e+00
2.953445544554455626e+00,-5.324813631522896766e-03,7.348242811501597138e-02,-2.662406815761448470e-02,9.110311750599519698e+00,6.498800959232613472e-01,3.726618705035971146e+00
2.958400990099010031e+00,-1.277955271565495154e-02,6.815761448349308416e-02,-1.703940362087327104e-02,9.086330935251798024e+00,6.834532374100719121e-01,3.764988009592326268e+00
2.963356435643564435e+00,-1.916932907348242732e-02,6.283280085197018305e-02,-4.259850905218317760e-03,9.071942446043165020e+00,6.930455635491606925e-01,3.803357314148680945e+00
2.968311881188118839e+00,-2.342917997870074681e-02,5.963791267305644517e-02,9.584664536741213658e-03,9.115107913669064033e+00,7.050359712230215292e-01,3.769784172661870603e+00
2.973267326732673244e+00,-2.981895633652822258e-02,5.857294994675186356e-02,2.129925452609158706e-02,9.148681055155876152e+00,6.091127098321342803e-01,3.784172661870503607e+00
2.978222772277227648e+00,-3.727369542066027996e-02,5.644302449414270728e-02,2.768903088391906284e-02,9.129496402877697037e+00,5.419664268585131506e-01,3.817745803357313950e+00
2.983178217821782496e+00,-4.153354632587859252e-02,5.005324813631523151e-02,2.768903088391906284e-02,9.100719424460431028e+00,5.299760191846523139e-01,3.803357314148680945e+00
2.988133663366336901e+00,-3.940362087326943624e-02,4.366347177848775574e-02,3.301384451544196047e-02,9.110311750599519698e+00,4.820143884892086339e-01,3.772182254196642770e+00
2.993089108910891305e+00,-3.940362087326943624e-02,4.472843450479233041e-02,3.833865814696485463e-02,9.095923261390886694e+00,4.580335731414867939e-01,3.738609112709831983e+00
2.998044554455445709e+00,-3.620873269435569836e-02,4.579339723109691201e-02,4.366347177848775574e-02,9.110311750599519698e+00,4.004796163069544446e-01,3.764988009592326268e+00
3.003000000000000114e+00,-3.407880724174654208e-02,4.259850905218317413e-02,4.472843450479233041e-02,9.098321342925659749e+00,3.309352517985611475e-01,3.762589928057554101e+00
3.007955445544554518e+00,-3.301384451544196047e-02,3.620873269435569836e-02,4.259850905218317413e-02,9.105515587529975363e+00,2.757793764988009655e-01,3.673860911270983021e+00
3.012910891089108922e+00,-3.088391906283280072e-02,3.514376996805111675e-02,3.514376996805111675e-02,9.136690647482014427e+00,2.925659472422062479e-01,3.597122302158273222e+00
3.017866336633663327e+00,-3.194888178913737886e-02,4.046858359957401785e-02,2.981895633652822258e-02,9.129496402877697037e+00,3.333333333333333148e-01,3.570743405275779381e+00
3.022821782178217731e+00,-3.301384451544196047e-02,4.259850905218317413e-02,2.662406815761448470e-02,9.158273381294964821e+00,3.645083932853717124e-01,3.594724220623501054e+00
3.027777227722772579e+00,-3.833865814696485463e-02,4.472843450479233041e-02,2.342917997870074681e-02,9.155875299760191766e+00,4.172661870503597270e-01,3.585131894484412385e+00
3.032732673267326984e+00,-4.472843450479233041e-02,4.898828541001064990e-02,2.129925452609158706e-02,9.117505995203837088e+00,4.340527577937650094e-01,3.589928057553956720e+00
3.037688118811881388e+00,-5.005324813631523151e-02,5.218317358892438779e-02,1.916932907348242732e-02,9.122302158273381423e+00,4.508393285371702364e-01,3.642685851318944845e+00
3.042643564356435792e+00,-6.070287539936101984e-02,5.111821086261980618e-02,2.023429179978700893e-02,9.088729016786571080e+00,4.508393285371702364e-01,3.721822541966426812e+00
3.047599009900990197e+00,-6.496272630457934627e-02,4.259850905218317413e-02,2.129925452609158706e-02,9.076738609112709355e+00,4.388489208633093441e-01,3.731414868105515481e+00
3.052554455445544601e+00,-6.496272630457934627e-02,3.727369542066027996e-02,2.023429179978700893e-02,9.088729016786571080e+00,4.292565947242206192e-01,3.714628297362110310e+00
3.057509900990099005e+00,-6.283280085197018305e-02,3.620873269435569836e-02,2.236421725239616520e-02,9.088729016786571080e+00,4.412470023980815115e-01,3.755395683453237599e+00
3.062465346534653410e+00,-6.176783812566560145e-02,3.088391906283280072e-02,2.555910543130990309e-02,9.071942446043165020e+00,5.203836930455635335e-01,3.832134292565947398e+00
3.067420792079208258e+00,-6.602768903088392094e-02,1.703940362087327104e-02,3.088391906283280072e-02,9.076738609112709355e+00,5.419664268585131506e-01,3.815347721822541782e+00
3.072376237623762663e+00,-7.028753993610223350e-02,7.454739084132055646e-03,3.727369542066027996e-02,9.083932853717026745e+00,5.107913669064748641e-01,3.779376498800959272e+00
3.077331683168317067e+00,-7.135250266240682204e-02,3.194888178913737886e-03,3.940362087326943624e-02,9.110311750599519698e+00,4.532374100719424592e-01,3.707434052757793808e+00
3.082287128712871471e+00,-7.348242811501597138e-02,3.194888178913737886e-03,4.259850905218317413e-02,9.107913669064748419e+00,3.956834532374100544e-01,3.736211031175059816e+00
3.087242574257425876e+00,-7.028753993610223350e-02,4.259850905218317760e-03,4.046858359957401785e-02,9.119904076738608367e+00,3.717026378896882699e-01,3.760191846522781933e+00
3.092198019801980280e+00,-6.602768903088392094e-02,-2.129925452609158880e-03,3.620873269435569836e-02,9.100719424460431028e+00,3.357314148681055377e-01,3.781774580335731439e+00
3.097153465346534684e+00,-5.750798722044728195e-02,-6.389776357827475772e-03,2.875399361022364098e-02,9.110311750599519698e+00,2.877697841726618577e-01,3.774580335731414937e+00
3.102108910891089089e+00,-5.005324813631523151e-02,-1.490947816826411129e-02,2.236421725239616520e-02,9.079136690647482411e+00,2.781774580335731328e-01,3.729016786570743314e+00
3.107064356435643493e+00,-3.940362087326943624e-02,-2.023429179978700893e-02,1.916932907348242732e-02,9.014388489208633004e+00,3.213429256594724226e-01,3.697841726618705138e+00
3.112019801980198341e+00,-3.194888178913737886e-02,-2.768903088391906284e-02,1.171458998935037341e-02,9.057553956834532016e+00,3.237410071942445899e-01,3.647482014388489180e+00
3.116975247524752746e+00,-2.981895633652822258e-02,-3.194888178913737886e-02,1.064962726304579440e-03,9.122302158273381423e+00,3.285371702637889801e-01,3.635491606714628343e+00
3.121930693069307150e+00,-3.088391906283280072e-02,-3.620873269435569836e-02,-1.064962726304579353e-02,9.153477218225420486e+00,3.693045563549160470e-01,3.613908872901678837e+00
3.126886138613861554e+00,-3.301384451544196047e-02,-4.046858359957401785e-02,-2.023429179978700893e-02,9.127098321342925757e+00,4.292565947242206192e-01,3.549160671462829875e+00
3.131841584158415959e+00,-2.981895633652822258e-02,-4.046858359957401785e-02,-2.129925452609158706e-02,9.107913669064748419e+00,4.556354916067146266e-01,3.503597122302158251e+00
3.136797029702970363e+00,-2.875399361022364098e-02,-3.301384451544196047e-02,-2.342917997870074681e-02,9.081534772182253690e+00,4.292565947242206192e-01,3.541966426858513373e+00
3.141752475247524767e+00,-3.194888178913737886e-02,-3.194888178913737886e-02,-2.662406815761448470e-02,9.095923261390886694e+00,3.932853717026378870e-01,3.585131894484412385e+00
3.146707920792079172e+00,-3.514376996805111675e-02,-3.727369542066027996e-02,-3.407880724174654208e-02,9.091127098321342359e+00,3.597122302158273222e-01,3.517985611510791255e+00
3.151663366336634020e+00,-3.194888178913737886e-02,-4.153354632587859252e-02,-4.366347177848775574e-02,9.086330935251798024e+00,3.693045563549160470e-01,3.395683453237410276e+00
3.156618811881188424e+00,-3.088391906283280072e-02,-3.727369542066027996e-02,-4.685835995740149362e-02,9.103117505995204084e+00,3.549160671462829875e-01,3.311750599520383531e+00
3.161574257425742829e+00,-2.449414270500532495e-02,-2.449414270500532495e-02,-5.005324813631523151e-02,9.136690647482014427e+00,2.781774580335731328e-01,3.304556354916067029e+00
3.166529702970297233e+00,-1.597444089456868943e-02,-1.277955271565495154e-02,-5.963791267305644517e-02,9.208633093525179447e+00,2.014388489208633060e-01,3.302158273381294862e+00
3.171485148514851637e+00,-6.389776357827475772e-03,-3.194888178913737886e-03,-7.454739084132055993e-02,9.182254196642686495e+00,2.062350119904076684e-01,3.364508393285371657e+00
3.176440594059406042e+00,4.259850905218317760e-03,9.584664536741213658e-03,-8.626198083067092293e-02,9.074340527577938076e+00,3.069544364508393075e-01,3.431654676258992787e+00
3.181396039603960446e+00,1.703940362087327104e-02,1.490947816826411129e-02,-8.945686900958466081e-02,8.966426858513189657e+00,3.764988009592326046e-01,3.539568345323741205e+00
3.186351485148514850e+00,2.875399361022364098e-02,1.277955271565495154e-02,-9.158679446219382403e-02,8.930455635491606259e+00,3.764988009592326046e-01,3.637889688249400511e+00
3.191306930693069255e+00,3.940362087326943624e-02,5.324813631522896766e-03,-9.584664536741213658e-02,8.942446043165467984e+00,4.148681055155875042e-01,3.693045563549160804e+00
3.196262376237624103e+00,4.366347177848775574e-02,-4.259850905218317760e-03,-1.022364217252396124e-01,8.961630695443645322e+00,5.131894484412470314e-01,3.726618705035971146e+00
3.201217821782178508e+00,4.792332268370606829e-02,-1.810436634717784918e-02,-1.033013844515442009e-01,8.944844124700239263e+00,6.115107913669064477e-01,3.697841726618705138e+00
3.206173267326732912e+00,4.898828541001064990e-02,-2.555910543130990309e-02,-9.158679446219382403e-02,8.983213429256593940e+00,7.002398081534771945e-01,3.563549160671462879e+00
3.211128712871287316e+00,4.898828541001064990e-02,-2.023429179978700893e-02,-7.987220447284344715e-02,9.038369304556354678e+00,7.098321342925659749e-01,3.513189448441246920e+00
3.216084158415841721e+00,4.685835995740149362e-02,-1.171458998935037341e-02,-6.709265175718849561e-02,9.062350119904076351e+00,7.314148681055155921e-01,3.515587529976019088e+00
3.221039603960396125e+00,3.940362087326943624e-02,-5.324813631522896766e-03,-5.537806176783812567e-02,9.045563549160672068e+00,7.649880095923261569e-01,3.529976019184652092e+00
3.225995049504950529e+00,3.088391906283280072e-02,-5.324813631522896766e-03,-4.579339723109691201e-02,9.062350119904076351e+00,8.081534772182253912e-01,3.438848920863309289e+00
3.230950495049504934e+00,2.023429179978700893e-02,4.259850905218317760e-03,-3.194888178913737886e-02,9.095923261390886694e+00,8.033573141486810565e-01,3.402877697841726778e+00
3.235905940594059782e+00,1.064962726304579353e-02,2.342917997870074681e-02,-1.703940362087327104e-02,9.122302158273381423e+00,7.338129496402877594e-01,3.402877697841726778e+00
3.240861386138614186e+00,-1.064962726304579440e-03,3.833865814696485463e-02,-5.324813631522896766e-03,9.079136690647482411e+00,7.218225419664268117e-01,3.479616306954436578e+00
3.245816831683168591e+00,-1.277955271565495154e-02,4.472843450479233041e-02,3.194888178913737886e-03,9.038369304556354678e+00,6.954436450839328598e-01,3.546762589928057707e+00
3.250772277227722995e+00,-2.236421725239616520e-02,4.472843450479233041e-02,1.171458998935037341e-02,8.971223021582733992e+00,6.762589928057554101e-01,3.585131894484412385e+00
3.255727722772277399e+00,-3.514376996805111675e-02,4.472843450479233041e-02,2.129925452609158706e-02,8.952038369304556653e+00,6.786570743405275774e-01,3.625899280575539674e+00
3.260683168316831804e+00,-4.366347177848775574e-02,4.259850905218317413e-02,3.194888178913737886e-02,8.920863309352517589e+00,6.450839328537170125e-01,3.551558752997602042e+00
3.265638613861386208e+00,-5.537806176783812567e-02,3.833865814696485463e-02,4.046858359957401785e-02,8.932853717026379314e+00,5.515587529976019310e-01,3.541966426858513373e+00
3.270594059405940612e+00,-6.176783812566560145e-02,3.940362087326943624e-02,4.366347177848775574e-02,8.961630695443645322e+00,4.844124700239808012e-01,3.520383693045563422e+00
3.275549504950495017e+00,-7.135250266240682204e-02,3.833865814696485463e-02,4.046858359957401785e-02,8.997601918465226944e+00,4.124700239808153368e-01,3.508393285371702586e+00
3.280504950495049865e+00,-7.667731629392970927e-02,3.727369542066027996e-02,3.940362087326943624e-02,9.014388489208633004e+00,3.381294964028777050e-01,3.417266187050359783e+00
3.285460396039604269e+00,-8.200212992545261037e-02,4.046858359957401785e-02,3.620873269435569836e-02,9.033573141486810343e+00,2.949640287769784153e-01,3.280575539568345356e+00
3.290415841584158674e+00,-8.093716719914803570e-02,5.431309904153354406e-02,3.088391906283280072e-02,9.112709832134292753e+00,2.182254196642685884e-01,3.220623501199040728e+00
3.295371287128713078e+00,-7.774227902023429781e-02,7.348242811501597138e-02,2.342917997870074681e-02,9.206235011990408168e+00,1.582733812949640162e-01,3.239808153477218067e+00
3.300326732673267482e+00,-7.454739084132055993e-02,9.371671991480298725e-02,1.384451544195953142e-02,9.177458033573142160e+00,1.534772182254196538e-01,3.309352517985611364e+00
3.305282178217821887e+00,-6.602768903088392094e-02,1.086261980830670881e-01,4.259850905218317760e-03,9.134292565947241371e+00,1.558752997601918489e-01,3.395683453237410276e+00
3.310237623762376291e+00,-5.963791267305644517e-02,1.160809371671991524e-01,-2.129925452609158880e-03,9.136690647482014427e+00,1.966426858513189435e-01,3.479616306954436578e+00
3.315193069306930695e+00,-5.111821086261980618e-02,1.256656017039403661e-01,-1.064962726304579353e-02,9.098321342925659749e+00,2.302158273381295084e-01,3.563549160671462879e+00
3.320148514851485544e+00,-4.366347177848775574e-02,1.309904153354632672e-01,-1.916932907348242732e-02,9.040767386091127733e+00,3.117505995203836977e-01,3.752997601918465431e+00
3.325103960396039948e+00,-3.833865814696485463e-02,1.288604898828540901e-01,-2.342917997870074681e-02,8.937649880095923649e+00,4.100719424460431695e-01,3.913669064748201532e+00
3.330059405940594353e+00,-3.301384451544196047e-02,1.107561235356762513e-01,-2.023429179978700893e-02,8.920863309352517589e+00,4.676258992805755188e-01,4.000000000000000000e+00
3.335014851485148757e+00,-2.768903088391906284e-02,9.265175718849839870e-02,-1.490947816826411129e-02,8.947242206235012318e+00,4.580335731414867939e-01,3.971223021582733992e+00
3.339970297029703161e+00,-2.555910543130990309e-02,7.987220447284344715e-02,-9.584664536741213658e-03,8.923261390887290645e+00,4.700239808153477417e-01,3.964028776978417046e+00
3.344925742574257566e+00,-2.449414270500532495e-02,6.815761448349308416e-02,-5.324813631522896766e-03,8.925659472422061924e+00,4.580335731414867939e-01,3.985611510791366996e+00
