t,gx,gy,gz,ax,ay,az
-5.658958793170035034e-04,-7.454739084132055646e-03,-1.064962726304579353e-02,-6.389776357827475772e-02,8.985611510791366996e+00,6.474820143884892076e-02,3.985611510791366996e+00
4.390250279341964545e-03,-7.454739084132055646e-03,0.000000000000000000e+00,-6.709265175718849561e-02,9.103117505995204084e+00,1.007194244604316530e-01,4.091127098321343247e+00
9.346396438000932269e-03,-4.259850905218317760e-03,-4.259850905218317760e-03,-7.454739084132055993e-02,9.148681055155876152e+00,9.112709832134292809e-02,4.151079136690647431e+00
1.430254259665989999e-02,0.000000000000000000e+00,-1.064962726304579353e-02,-7.348242811501597138e-02,9.067146282973620686e+00,1.582733812949640162e-01,4.124700239808153590e+00
1.925868875531886598e-02,1.384451544195953142e-02,-6.389776357827475772e-03,-7.135250266240682204e-02,8.978417266187049606e+00,2.086330935251798635e-01,4.055155875299759849e+00
2.421483491397783544e-02,1.703940362087327104e-02,-1.171458998935037341e-02,-7.774227902023429781e-02,8.995203836930455665e+00,2.973621103117505826e-01,3.774580335731414937e+00
2.917098107263680143e-02,3.194888178913737886e-03,-5.324813631522896766e-03,-8.306709265175718504e-02,8.896882494004795916e+00,4.292565947242206192e-01,3.714628297362110310e+00
3.412712723129576742e-02,2.129925452609158880e-03,2.129925452609158706e-02,-7.454739084132055993e-02,8.839328537170263900e+00,4.892086330935251914e-01,3.865707434052757741e+00
3.908327338995473688e-02,1.064962726304579353e-02,4.153354632587859252e-02,-5.537806176783812567e-02,8.877697841726618577e+00,4.580335731414867939e-01,4.081534772182254578e+00
4.403941954861370633e-02,1.384451544195953142e-02,4.153354632587859252e-02,-5.431309904153354406e-02,8.959232613908872267e+00,4.580335731414867939e-01,4.261390887290168017e+00
4.899556570727267579e-02,1.064962726304579353e-02,3.088391906283280072e-02,-5.324813631522896940e-02,8.834532374100719565e+00,5.923261390887289979e-01,4.479616306954436133e+00
5.395171186593163831e-02,1.064962726304579353e-02,1.597444089456868943e-02,-4.579339723109691201e-02,8.800959232613909222e+00,7.218225419664268117e-01,4.359712230215827766e+00
5.890785802459060777e-02,-4.259850905218317760e-03,7.454739084132055646e-03,-3.940362087326943624e-02,8.750599520383692820e+00,7.074340527577938076e-01,4.402877697841726778e+00
6.386400418324957029e-02,-1.597444089456868943e-02,0.000000000000000000e+00,-3.088391906283280072e-02,8.606714628297362779e+00,6.570743405275779603e-01,4.484412470023980468e+00
6.882015034190853975e-02,-1.916932907348242732e-02,-1.597444089456868943e-02,-1.916932907348242732e-02,8.501199040767385640e+00,6.019184652278177783e-01,4.386091127098321607e+00
7.377629650056750921e-02,-1.490947816826411129e-02,-2.023429179978700893e-02,-1.171458998935037341e-02,8.798561151079136167e+00,5.203836930455635335e-01,4.179856115107913439e+00
7.873244265922647867e-02,-1.064962726304579353e-02,-3.194888178913737886e-03,-3.194888178913737886e-03,8.932853717026379314e+00,5.107913669064748641e-01,4.422062350119904117e+00
8.368858881788544812e-02,-2.129925452609158880e-03,-1.703940362087327104e-02,2.129925452609158880e-03,8.956834532374100988e+00,4.820143884892086339e-01,4.242206235011990678e+00
8.864473497654441758e-02,-2.449414270500532495e-02,-3.940362087326943624e-02,6.389776357827475772e-03,8.944844124700239263e+00,5.011990407673860837e-01,4.040767386091126845e+00
9.360088113520338704e-02,-2.449414270500532495e-02,-3.088391906283280072e-02,2.342917997870074681e-02,8.752997601918465875e+00,5.491606714628297636e-01,4.019184652278177339e+00
9.855702729386235650e-02,-4.259850905218317760e-03,-2.129925452609158880e-03,5.431309904153354406e-02,8.717026378896882477e+00,4.172661870503597270e-01,4.050359712230215514e+00
1.035131734525213121e-01,1.064962726304579353e-02,1.597444089456868943e-02,7.028753993610223350e-02,9.007194244604317390e+00,1.630695443645084064e-01,4.412470023980815448e+00
1.084693196111802815e-01,3.620873269435569836e-02,3.194888178913737886e-03,6.283280085197018305e-02,9.023980815347721673e+00,1.294964028776978415e-01,4.482014388489208301e+00
1.134254657698392510e-01,4.898828541001064990e-02,-1.597444089456868943e-02,5.324813631522896940e-02,9.182254196642686495e+00,2.254196642685851182e-01,4.369304556354916436e+00
1.183816119284982205e-01,5.537806176783812567e-02,-7.454739084132055646e-03,7.135250266240682204e-02,8.769784172661870159e+00,3.093525179856115304e-01,4.009592326139088669e+00
1.233377580871571899e-01,6.602768903088392094e-02,2.023429179978700893e-02,1.033013844515442009e-01,8.702637889688249473e+00,2.901678657074340251e-01,4.194244604316546443e+00
1.282939042458161594e-01,1.064962726304579388e-01,5.005324813631523151e-02,1.288604898828540901e-01,8.719424460431655532e+00,3.357314148681055377e-01,4.208633093525179447e+00
1.332500504044751288e-01,1.118210862619808260e-01,4.366347177848775574e-02,1.640042598509052207e-01,8.764988009592325824e+00,1.342925659472422040e-01,4.388489208633093774e+00
1.382061965631340983e-01,1.363152289669861683e-01,4.366347177848775574e-02,1.810436634717784987e-01,9.021582733812950394e+00,-4.316546762589928282e-02,4.266187050359712352e+00
1.431623427217930677e-01,1.341853035143769912e-01,4.579339723109691201e-02,1.799787007454738963e-01,9.232613908872901121e+00,-9.352517985611510931e-02,4.558752997601918544e+00
1.481184888804520372e-01,1.373801916932907430e-01,3.407880724174654208e-02,1.735889243876464205e-01,9.194244604316546443e+00,-4.076738609112710160e-02,4.565947242206235046e+00
1.530746350391110067e-01,1.352502662406815659e-01,2.023429179978700893e-02,1.725239616613418459e-01,9.141486810551558762e+00,-6.714628297362110199e-02,4.616306954436450560e+00
1.580307811977699761e-01,1.469648562300319428e-01,1.703940362087327104e-02,1.746538871139510229e-01,9.263788968824940184e+00,-2.350119904076738708e-01,4.529976019184652536e+00
1.629869273564289456e-01,1.533546325878594185e-01,1.171458998935037341e-02,1.576144834930777450e-01,9.350119904076738209e+00,-4.436450839328537343e-01,4.287769784172661858e+00
1.679430735150879150e-01,1.512247071352502692e-01,1.384451544195953142e-02,1.171458998935037271e-01,9.254196642685851515e+00,-4.628297362110311841e-01,4.004796163069544335e+00
1.728992196737468845e-01,1.554845580404685956e-01,3.301384451544196047e-02,8.093716719914803570e-02,9.302158273381294862e+00,-3.117505995203836977e-01,3.652278177458033515e+00
1.778553658324058540e-01,1.458998935037273681e-01,4.898828541001064990e-02,6.389776357827475772e-02,9.184652278177457774e+00,-2.637889688249400733e-01,3.868105515587529908e+00
1.828115119910648234e-01,1.671991480298189447e-01,7.028753993610223350e-02,6.070287539936101984e-02,9.016786570743406060e+00,-2.422062350119904006e-01,4.023980815347721673e+00
1.877676581497237929e-01,1.853035143769967974e-01,7.135250266240682204e-02,6.815761448349308416e-02,9.000000000000000000e+00,-2.829736211031175230e-01,4.155875299760191766e+00
1.927238043083827623e-01,2.161874334398296016e-01,6.176783812566560145e-02,6.922257720979765883e-02,8.863309352517985573e+00,-1.942446043165467762e-01,3.880095923261390745e+00
1.976799504670417318e-01,2.364217252396166036e-01,7.454739084132055993e-02,8.413205537806177359e-02,8.568345323741006325e+00,-5.275779376498800771e-02,3.863309352517985573e+00
2.026360966257006735e-01,2.673056443024494078e-01,9.797657082002129980e-02,1.214057507987220397e-01,8.705035971223020752e+00,-8.393285371702638442e-02,3.992805755395683498e+00
2.075922427843596429e-01,2.886048988285410122e-01,1.011714589989350377e-01,1.427050053248136441e-01,8.901678657074340251e+00,-2.254196642685851182e-01,4.076738609112710243e+00
2.125483889430186124e-01,2.843450479233226580e-01,7.880724174653887248e-02,1.341853035143769912e-01,8.932853717026379314e+00,-2.949640287769784153e-01,4.143884892086330929e+00
2.175045351016775819e-01,2.822151224707135087e-01,5.750798722044728195e-02,1.096911608093716767e-01,8.829736211031175230e+00,-1.318944844124700366e-01,3.810551558752997447e+00
2.224606812603365513e-01,2.577209797657081802e-01,5.431309904153354406e-02,9.691160809371672513e-02,8.829736211031175230e+00,1.678657074340527550e-02,3.834532374100719565e+00
2.274168274189955208e-01,2.470713525026624058e-01,5.963791267305644517e-02,9.584664536741213658e-02,9.103117505995204084e+00,-1.918465227817745672e-02,3.750599520383693264e+00
2.323729735776544902e-01,2.204472843450479280e-01,6.283280085197018305e-02,8.413205537806177359e-02,9.342925659472422595e+00,-1.726618705035971313e-01,3.800959232613908778e+00
2.373291197363134597e-01,2.034078807241746500e-01,7.561235356762513460e-02,5.324813631522896940e-02,9.287769784172661858e+00,-3.597122302158273222e-02,3.736211031175059816e+00
2.422852658949724292e-01,1.778487752928647470e-01,9.797657082002129980e-02,2.875399361022364098e-02,9.143884892086331817e+00,2.182254196642685884e-01,3.860911270983213406e+00
2.472414120536313986e-01,1.618743343982960714e-01,1.107561235356762513e-01,3.620873269435569836e-02,9.191846522781775164e+00,2.541966426858512929e-01,4.122302158273381423e+00
2.521975582122903403e-01,1.544195953141639932e-01,1.118210862619808260e-01,4.472843450479233041e-02,9.362110311750599934e+00,7.434052757793764565e-02,4.100719424460431917e+00
2.571537043709493098e-01,1.267305644302449408e-01,1.128860489882854146e-01,2.875399361022364098e-02,9.522781774580336034e+00,-2.398081534772182263e-02,4.230215827338129841e+00
2.621098505296082792e-01,1.139510117145899892e-01,1.192758253461128903e-01,4.259850905218317760e-03,9.517985611510791699e+00,8.872901678657074687e-02,4.318944844124700033e+00
2.670659966882672487e-01,9.478168264110756192e-02,1.203407880724174650e-01,-8.519701810436635520e-03,9.489208633093525691e+00,2.230215827338129508e-01,4.553956834532374209e+00
2.720221428469262182e-01,8.732694355697551147e-02,1.182108626198083018e-01,-1.384451544195953142e-02,9.434052757793764954e+00,2.230215827338129508e-01,4.426858513189448452e+00
2.769782890055851876e-01,6.602768903088392094e-02,1.128860489882854146e-01,-1.490947816826411129e-02,9.342925659472422595e+00,2.014388489208633060e-01,4.292565947242206192e+00
2.819344351642441571e-01,4.898828541001064990e-02,1.150159744408945639e-01,-2.236421725239616520e-02,9.244604316546762846e+00,2.709832134292565753e-01,4.155875299760191766e+00
2.868905813229031265e-01,3.833865814696485463e-02,1.320553780617678419e-01,-2.129925452609158706e-02,8.947242206235012318e+00,4.844124700239808012e-01,4.254196642685851515e+00
2.918467274815620960e-01,3.833865814696485463e-02,1.427050053248136441e-01,0.000000000000000000e+00,8.923261390887290645e+00,4.220623501199040617e-01,4.767386091127097991e+00
2.968028736402210654e-01,4.792332268370606829e-02,1.171458998935037271e-01,2.023429179978700893e-02,9.129496402877697037e+00,8.633093525179856564e-02,5.007194244604316502e+00
3.017590197988800349e-01,4.259850905218317413e-02,6.602768903088392094e-02,2.129925452609158880e-03,9.127098321342925757e+00,-6.474820143884892076e-02,5.059952038369304184e+00
3.067151659575390044e-01,3.088391906283280072e-02,6.389776357827475772e-03,-3.088391906283280072e-02,9.256594724220622794e+00,1.678657074340527550e-02,4.551558752997602042e+00
3.116713121161979738e-01,-5.324813631522896766e-03,-3.301384451544196047e-02,-6.389776357827475772e-02,9.213429256594723782e+00,2.110311750599520308e-01,3.988009592326139163e+00
3.166274582748569433e-01,-2.023429179978700893e-02,-1.064962726304579440e-03,-7.561235356762513460e-02,9.136690647482014427e+00,2.422062350119904006e-01,3.956834532374100544e+00
3.215836044335159127e-01,-1.277955271565495154e-02,4.685835995740149362e-02,-7.028753993610223350e-02,9.729016786570744202e+00,-4.076738609112710160e-02,4.112709832134292753e+00
3.265397505921748822e-01,-2.768903088391906284e-02,6.389776357827475772e-02,-1.001064962726304630e-01,9.539568345323740317e+00,-1.798561151079136611e-01,4.774580335731414493e+00
3.314958967508338517e-01,-1.171458998935037341e-02,3.407880724174654208e-02,-1.288604898828540901e-01,9.287769784172661858e+00,9.592326139088728360e-03,4.872901678657074243e+00
3.364520429094928211e-01,-1.064962726304579440e-03,-2.129925452609158880e-03,-1.416400425985090417e-01,9.275779376498800133e+00,3.237410071942445899e-01,4.642685851318944401e+00
3.414081890681517906e-01,8.519701810436635520e-03,-2.129925452609158706e-02,-1.331203407880724165e-01,9.055155875299760737e+00,4.868105515587530241e-01,4.393285371702638109e+00
3.463643352268107600e-01,2.449414270500532495e-02,-4.259850905218317760e-03,-1.171458998935037271e-01,9.151079136690647431e+00,4.052757793764987793e-01,4.357314148681055599e+00
3.513204813854697295e-01,2.875399361022364098e-02,1.064962726304579440e-03,-1.235356762513312029e-01,9.242206235011989790e+00,4.340527577937650094e-01,4.983213429256594829e+00
3.562766275441286989e-01,3.407880724174654208e-02,-4.685835995740149362e-02,-1.341853035143769912e-01,9.146282973621103096e+00,6.738609112709832427e-01,5.299760191846522694e+00
3.612327737027876684e-01,3.301384451544196047e-02,-1.246006389776357776e-01,-1.246006389776357776e-01,8.930455635491606259e+00,9.760191846522782155e-01,5.189448441247002108e+00
3.661889198614466379e-01,4.792332268370606829e-02,-1.821086261980830734e-01,-8.945686900958466081e-02,8.815347721822542226e+00,1.134292565947242259e+00,4.592326139088728887e+00
3.711450660201056073e-01,5.218317358892438779e-02,-1.927582534611288478e-01,-4.046858359957401785e-02,9.004796163069544335e+00,1.093525179856115193e+00,4.299760191846522694e+00
3.761012121787645768e-01,5.750798722044728195e-02,-1.895633652822151238e-01,1.064962726304579353e-02,9.278177458033573188e+00,9.328537170263788703e-01,4.309352517985611364e+00
3.810573583374235462e-01,6.070287539936101984e-02,-1.948881789137380249e-01,5.005324813631523151e-02,9.465227817745804018e+00,7.242206235011990900e-01,4.285371702637889690e+00
3.860135044960825157e-01,6.389776357827475772e-02,-2.023429179978700754e-01,7.135250266240682204e-02,9.465227817745804018e+00,6.187050359712230607e-01,4.131894484412470092e+00
3.909696506547414852e-01,6.602768903088392094e-02,-1.938232161874334503e-01,8.732694355697551147e-02,9.376498800959232938e+00,5.851318944844124958e-01,3.851318944844124736e+00
3.959257968134004546e-01,5.644302449414270728e-02,-1.735889243876464205e-01,1.001064962726304630e-01,9.335731414868105205e+00,4.988009592326139163e-01,3.856115107913669071e+00
4.008819429720593686e-01,5.431309904153354406e-02,-1.565495207667731703e-01,1.118210862619808260e-01,9.448441247002397958e+00,3.093525179856115304e-01,3.858513189448441238e+00
4.058380891307183380e-01,3.940362087326943624e-02,-1.458998935037273681e-01,1.075612353567625135e-01,9.611510791366907114e+00,5.995203836930455832e-02,3.947242206235011874e+00
4.107942352893773075e-01,2.555910543130990309e-02,-1.405750798722044670e-01,7.880724174653887248e-02,9.580335731414868050e+00,2.877697841726618855e-02,3.954436450839328376e+00
4.157503814480362769e-01,9.584664536741213658e-03,-1.384451544195953177e-01,4.792332268370606829e-02,9.412470023980814560e+00,1.486810551558752913e-01,3.906474820143885029e+00
4.207065276066952464e-01,-5.324813631522896766e-03,-1.352502662406815659e-01,3.194888178913737886e-02,9.237410071942445455e+00,2.494004796163069582e-01,3.844124700239808234e+00
4.256626737653542158e-01,-1.703940362087327104e-02,-1.288604898828540901e-01,2.236421725239616520e-02,9.244604316546762846e+00,1.414868105515587615e-01,3.805755395683453113e+00
4.306188199240131853e-01,-3.727369542066027996e-02,-1.267305644302449408e-01,5.324813631522896766e-03,9.302158273381294862e+00,-1.438848920863309427e-02,3.896882494004796360e+00
4.355749660826721548e-01,-5.431309904153354406e-02,-1.341853035143769912e-01,-2.875399361022364098e-02,9.328537170263789591e+00,-1.438848920863309427e-02,3.844124700239808234e+00
4.405311122413311242e-01,-7.987220447284344715e-02,-1.469648562300319428e-01,-6.709265175718849561e-02,9.251798561151078459e+00,1.654676258992805737e-01,3.810551558752997447e+00
4.454872583999900937e-01,-9.691160809371672513e-02,-1.490947816826411199e-01,-8.839190628328008614e-02,9.258992805755395850e+00,2.661870503597122406e-01,3.618705035971223172e+00
4.504434045586490631e-01,-1.075612353567625135e-01,-1.352502662406815659e-01,-1.001064962726304630e-01,9.388489208633092886e+00,2.206235011990407557e-01,3.410071942446043280e+00
4.553995507173080326e-01,-1.118210862619808260e-01,-9.797657082002129980e-02,-1.150159744408945639e-01,9.496402877697841305e+00,2.182254196642685884e-01,3.410071942446043280e+00
4.603556968759670021e-01,-1.118210862619808260e-01,-6.283280085197018305e-02,-1.288604898828540901e-01,9.472422062350119631e+00,3.717026378896882699e-01,3.592326139088728887e+00
4.653118430346259715e-01,-1.139510117145899892e-01,-4.685835995740149362e-02,-1.256656017039403661e-01,9.402877697841725890e+00,5.251798561151078681e-01,3.774580335731414937e+00
4.702679891932849410e-01,-1.075612353567625135e-01,-3.514376996805111675e-02,-1.118210862619808260e-01,9.364508393285371213e+00,5.659472422062350461e-01,3.645083932853717013e+00
4.752241353519439104e-01,-1.064962726304579388e-01,-1.490947816826411129e-02,-9.797657082002129980e-02,9.410071942446043280e+00,5.299760191846523139e-01,3.599520383693045389e+00
4.801802815106028799e-01,-1.064962726304579388e-01,1.171458998935037341e-02,-9.158679446219382403e-02,9.407673860911270225e+00,5.419664268585131506e-01,3.657074340527577849e+00
4.851364276692618493e-01,-1.096911608093716767e-01,2.875399361022364098e-02,-9.265175718849839870e-02,9.402877697841725890e+00,6.378896882494005105e-01,3.863309352517985573e+00
4.900925738279208188e-01,-1.150159744408945639e-01,3.088391906283280072e-02,-8.519701810436634826e-02,9.378896882494004217e+00,6.906474820143885252e-01,3.961630695443644878e+00
4.950487199865797883e-01,-1.203407880724174650e-01,3.088391906283280072e-02,-7.348242811501597138e-02,9.366906474820144268e+00,7.362110311750599267e-01,3.877697841726618577e+00
5.000048661452387577e-01,-1.288604898828540901e-01,3.727369542066027996e-02,-6.709265175718849561e-02,9.352517985611511264e+00,7.601918465227818222e-01,3.916067146282973699e+00
5.049610123038976717e-01,-1.405750798722044670e-01,4.579339723109691201e-02,-6.176783812566560145e-02,9.292565947242206192e+00,8.129496402877698369e-01,4.007194244604316502e+00
5.099171584625566966e-01,-1.565495207667731703e-01,4.259850905218317413e-02,-5.111821086261980618e-02,9.278177458033573188e+00,7.721822541966426590e-01,4.057553956834532016e+00
5.148733046212156106e-01,-1.661341853035143701e-01,3.514376996805111675e-02,-4.472843450479233041e-02,9.374100719424459882e+00,5.683453237410072134e-01,3.913669064748201532e+00
5.198294507798746356e-01,-1.821086261980830734e-01,3.301384451544196047e-02,-5.218317358892438779e-02,9.362110311750599934e+00,3.932853717026378870e-01,3.841726618705036067e+00
5.247855969385335495e-01,-1.842385516506922227e-01,4.792332268370606829e-02,-6.496272630457934627e-02,9.268585131894484519e+00,4.076738609112710021e-01,3.884892086330935079e+00
5.297417430971925745e-01,-1.810436634717784987e-01,5.750798722044728195e-02,-7.241746538871139671e-02,9.232613908872901121e+00,4.700239808153477417e-01,3.997601918465227833e+00
5.346978892558514884e-01,-1.821086261980830734e-01,5.324813631522896940e-02,-6.815761448349308416e-02,9.134292565947241371e+00,4.436450839328537343e-01,4.127098321342925757e+00
5.396540354145105134e-01,-1.725239616613418459e-01,4.792332268370606829e-02,-6.283280085197018305e-02,9.076738609112709355e+00,3.549160671462829875e-01,4.239808153477218511e+00
5.446101815731694273e-01,-1.671991480298189447e-01,3.620873269435569836e-02,-6.283280085197018305e-02,9.110311750599519698e+00,2.517985611510791255e-01,4.225419664268585507e+00
5.495663277318284523e-01,-1.671991480298189447e-01,1.490947816826411129e-02,-7.561235356762513460e-02,9.155875299760191766e+00,2.709832134292565753e-01,4.143884892086330929e+00
5.545224738904873663e-01,-1.629392971246006461e-01,0.000000000000000000e+00,-8.732694355697551147e-02,9.184652278177457774e+00,3.045563549160671402e-01,3.997601918465227833e+00
5.594786200491463912e-01,-1.586794462193823196e-01,5.324813631522896766e-03,-9.691160809371672513e-02,9.208633093525179447e+00,2.613908872901678504e-01,3.966426858513189657e+00
5.644347662078053052e-01,-1.576144834930777450e-01,2.662406815761448470e-02,-1.096911608093716767e-01,9.203836930455635112e+00,2.805755395683453002e-01,4.139088729016786594e+00
5.693909123664643301e-01,-1.533546325878594185e-01,2.981895633652822258e-02,-1.182108626198083018e-01,9.158273381294964821e+00,3.573141486810551548e-01,4.357314148681055599e+00
5.743470585251232441e-01,-1.480298189563365174e-01,1.277955271565495154e-02,-1.299254526091586925e-01,9.091127098321342359e+00,4.292565947242206192e-01,4.426858513189448452e+00
5.793032046837822691e-01,-1.512247071352502692e-01,-9.584664536741213658e-03,-1.352502662406815659e-01,8.959232613908872267e+00,5.107913669064748641e-01,4.362110311750599934e+00
5.842593508424411830e-01,-1.533546325878594185e-01,-2.236421725239616520e-02,-1.384451544195953177e-01,8.932853717026379314e+00,6.139088729016786150e-01,4.311750599520383531e+00
5.892154970011002080e-01,-1.586794462193823196e-01,-2.768903088391906284e-02,-1.384451544195953177e-01,8.956834532374100988e+00,7.002398081534771945e-01,4.446043165467625791e+00
5.941716431597591219e-01,-1.576144834930777450e-01,-3.833865814696485463e-02,-1.320553780617678419e-01,8.980815347721822661e+00,7.218225419664268117e-01,4.635491606714627899e+00
5.991277893184181469e-01,-1.586794462193823196e-01,-5.857294994675186356e-02,-1.203407880724174650e-01,8.942446043165467984e+00,7.817745803357314394e-01,4.779376498800958828e+00
6.040839354770770608e-01,-1.597444089456868943e-01,-9.371671991480298725e-02,-1.054313099041533502e-01,8.923261390887290645e+00,8.225419664268585063e-01,4.745803357314148485e+00
6.090400816357360858e-01,-1.586794462193823196e-01,-1.235356762513312029e-01,-9.371671991480298725e-02,8.901678657074340251e+00,8.201438848920863389e-01,4.623501199040767062e+00
6.139962277943949998e-01,-1.586794462193823196e-01,-1.469648562300319428e-01,-7.774227902023429781e-02,8.923261390887290645e+00,8.393285371702637887e-01,4.498800959232613472e+00
6.189523739530540247e-01,-1.522896698615548439e-01,-1.608093716719914690e-01,-6.070287539936101984e-02,9.021582733812950394e+00,7.913669064748201087e-01,4.398081534772182444e+00
6.239085201117129387e-01,-1.544195953141639932e-01,-1.735889243876464205e-01,-4.366347177848775574e-02,9.055155875299760737e+00,8.129496402877698369e-01,4.335731414868105205e+00
6.288646662703719636e-01,-1.554845580404685956e-01,-1.842385516506922227e-01,-2.875399361022364098e-02,9.031175059952039064e+00,8.848920863309353013e-01,4.251798561151079348e+00
6.338208124290308776e-01,-1.565495207667731703e-01,-1.906283280085196985e-01,-1.064962726304579353e-02,9.059952038369305072e+00,8.848920863309353013e-01,4.127098321342925757e+00
6.387769585876897915e-01,-1.640042598509052207e-01,-1.884984025559105492e-01,7.454739084132055646e-03,9.117505995203837088e+00,8.561151079136690711e-01,3.968824940047961825e+00
6.437331047463488165e-01,-1.725239616613418459e-01,-1.746538871139510229e-01,2.023429179978700893e-02,9.107913669064748419e+00,8.489208633093525691e-01,3.899280575539568527e+00
6.486892509050077305e-01,-1.821086261980830734e-01,-1.608093716719914690e-01,3.088391906283280072e-02,9.110311750599519698e+00,8.657074340527577405e-01,3.961630695443644878e+00
6.536453970636667554e-01,-1.906283280085196985e-01,-1.544195953141639932e-01,4.153354632587859252e-02,9.146282973621103096e+00,8.657074340527577405e-01,3.959232613908872711e+00
6.586015432223256694e-01,-1.970181043663471743e-01,-1.469648562300319428e-01,5.431309904153354406e-02,9.139088729016785706e+00,8.417266187050359560e-01,3.894484412470024193e+00
6.635576893809846943e-01,-2.076677316293929765e-01,-1.320553780617678419e-01,6.389776357827475772e-02,9.055155875299760737e+00,8.824940047961630230e-01,3.858513189448441238e+00
6.685138355396436083e-01,-2.161874334398296016e-01,-1.203407880724174650e-01,7.774227902023429781e-02,9.009592326139088669e+00,8.968824940047961380e-01,3.978417266187050494e+00
6.734699816983026333e-01,-2.193823216187433534e-01,-1.171458998935037271e-01,9.691160809371672513e-02,9.011990407673861725e+00,7.505995203836930418e-01,4.033573141486810343e+00
6.784261278569615472e-01,-2.193823216187433534e-01,-1.192758253461128903e-01,1.107561235356762513e-01,9.021582733812950394e+00,5.899280575539568305e-01,4.033573141486810343e+00
6.833822740156205722e-01,-2.151224707135250269e-01,-1.235356762513312029e-01,1.096911608093716767e-01,9.002398081534773056e+00,5.923261390887289979e-01,4.019184652278177339e+00
6.883384201742794861e-01,-2.076677316293929765e-01,-1.203407880724174650e-01,1.086261980830670881e-01,8.937649880095923649e+00,6.091127098321342803e-01,4.002398081534772167e+00
6.932945663329385111e-01,-1.959531416400425996e-01,-1.139510117145899892e-01,1.192758253461128903e-01,8.911270983213428920e+00,5.803357314148680501e-01,4.043165467625899012e+00
6.982507124915974250e-01,-1.789137380191693216e-01,-1.064962726304579388e-01,1.331203407880724165e-01,8.947242206235012318e+00,4.940047961630695261e-01,4.059952038369304184e+00
7.032068586502564500e-01,-1.650692225772097954e-01,-1.043663471778487756e-01,1.405750798722044670e-01,8.983213429256593940e+00,4.028776978417266119e-01,4.127098321342925757e+00
7.081630048089153640e-01,-1.533546325878594185e-01,-1.107561235356762513e-01,1.373801916932907430e-01,8.976019184652278327e+00,4.244604316546762846e-01,4.115107913669064921e+00
7.131191509675743889e-01,-1.480298189563365174e-01,-1.139510117145899892e-01,1.363152289669861683e-01,8.884892086330935967e+00,4.820143884892086339e-01,4.107913669064748419e+00
7.180752971262333029e-01,-1.363152289669861683e-01,-1.150159744408945639e-01,1.416400425985090417e-01,8.839328537170263900e+00,4.724220623501199090e-01,4.112709832134292753e+00
7.230314432848923278e-01,-1.246006389776357776e-01,-1.160809371671991524e-01,1.480298189563365174e-01,8.836930455635490844e+00,4.412470023980815115e-01,4.115107913669064921e+00
7.279875894435512418e-01,-1.182108626198083018e-01,-1.182108626198083018e-01,1.554845580404685956e-01,8.851318944844123848e+00,4.436450839328537343e-01,4.179856115107913439e+00
7.329437356022102668e-01,-1.096911608093716767e-01,-1.288604898828540901e-01,1.597444089456868943e-01,8.815347721822542226e+00,5.035971223021582510e-01,4.170263788968824770e+00
7.378998817608691807e-01,-1.096911608093716767e-01,-1.416400425985090417e-01,1.661341853035143701e-01,8.803357314148680501e+00,5.347721822541966485e-01,4.155875299760191766e+00
7.428560279195282057e-01,-1.086261980830670881e-01,-1.512247071352502692e-01,1.789137380191693216e-01,8.827338129496402175e+00,5.659472422062350461e-01,4.007194244604316502e+00
7.478121740781871196e-01,-1.192758253461128903e-01,-1.533546325878594185e-01,1.884984025559105492e-01,8.868105515587529908e+00,5.347721822541966485e-01,3.916067146282973699e+00
7.527683202368461446e-01,-1.309904153354632672e-01,-1.480298189563365174e-01,1.948881789137380249e-01,8.973621103117505271e+00,4.436450839328537343e-01,3.887290167865707247e+00
7.577244663955050585e-01,-1.427050053248136441e-01,-1.427050053248136441e-01,1.970181043663471743e-01,9.043165467625899012e+00,4.676258992805755188e-01,3.913669064748201532e+00
7.626806125541640835e-01,-1.544195953141639932e-01,-1.363152289669861683e-01,2.023429179978700754e-01,8.978417266187049606e+00,4.700239808153477417e-01,3.925659472422062368e+00
7.676367587128229975e-01,-1.586794462193823196e-01,-1.267305644302449408e-01,2.140575079872204523e-01,8.916067146282973255e+00,4.076738609112710021e-01,3.877697841726618577e+00
7.725929048714820224e-01,-1.640042598509052207e-01,-1.139510117145899892e-01,2.215122470713525027e-01,8.964028776978416602e+00,2.685851318944844079e-01,3.887290167865707247e+00
7.775490510301409364e-01,-1.671991480298189447e-01,-1.001064962726304630e-01,2.161874334398296016e-01,8.985611510791366996e+00,1.702637889688249362e-01,3.978417266187050494e+00
7.825051971887999613e-01,-1.735889243876464205e-01,-9.584664536741213658e-02,2.087326943556975511e-01,8.901678657074340251e+00,9.832134292565947176e-02,4.151079136690647431e+00
7.874613433474588753e-01,-1.735889243876464205e-01,-1.064962726304579388e-01,2.002129925452609260e-01,8.750599520383692820e+00,1.007194244604316530e-01,4.194244604316546443e+00
7.924174895061179003e-01,-1.746538871139510229e-01,-1.256656017039403661e-01,1.980830670926517489e-01,8.661870503597121740e+00,4.316546762589928282e-02,4.131894484412470092e+00
7.973736356647768142e-01,-1.714589989350372712e-01,-1.373801916932907430e-01,1.906283280085196985e-01,8.695443645083932083e+00,-4.796163069544364527e-02,4.057553956834532016e+00
8.023297818234357281e-01,-1.661341853035143701e-01,-1.427050053248136441e-01,1.789137380191693216e-01,8.767386091127098879e+00,-1.270983213429256464e-01,4.004796163069544335e+00
8.072859279820947531e-01,-1.586794462193823196e-01,-1.458998935037273681e-01,1.640042598509052207e-01,8.791366906474820553e+00,-1.127098321342925591e-01,3.985611510791366996e+00
8.122420741407536671e-01,-1.512247071352502692e-01,-1.480298189563365174e-01,1.554845580404685956e-01,8.752997601918465875e+00,-2.398081534772182090e-03,3.983213429256594829e+00
8.171982202994126920e-01,-1.458998935037273681e-01,-1.512247071352502692e-01,1.512247071352502692e-01,8.705035971223020752e+00,-4.796163069544364180e-03,3.930455635491606703e+00
8.221543664580716060e-01,-1.405750798722044670e-01,-1.565495207667731703e-01,1.512247071352502692e-01,8.714628297362111198e+00,-5.755395683453237710e-02,3.829736211031175230e+00
8.271105126167306310e-01,-1.384451544195953177e-01,-1.565495207667731703e-01,1.448349307774227934e-01,8.803357314148680501e+00,-1.438848920863309289e-01,3.752997601918465431e+00
8.320666587753895449e-01,-1.384451544195953177e-01,-1.522896698615548439e-01,1.277955271565495154e-01,8.817745803357313505e+00,-1.534772182254196538e-01,3.719424460431654644e+00
8.370228049340485699e-01,-1.363152289669861683e-01,-1.437699680511182188e-01,1.139510117145899892e-01,8.772182254196643214e+00,-1.247002398081534791e-01,3.707434052757793808e+00
8.419789510927074838e-01,-1.320553780617678419e-01,-1.373801916932907430e-01,1.075612353567625135e-01,8.685851318944843413e+00,-1.103117505995203779e-01,3.678657074340527799e+00
8.469350972513665088e-01,-1.267305644302449408e-01,-1.309904153354632672e-01,1.022364217252396124e-01,8.697841726618705138e+00,-1.798561151079136611e-01,3.666666666666666519e+00
8.518912434100254227e-01,-1.160809371671991524e-01,-1.235356762513312029e-01,9.158679446219382403e-02,8.748201438848921541e+00,-2.973621103117505826e-01,3.633093525179856176e+00
8.568473895686844477e-01,-1.064962726304579388e-01,-1.192758253461128903e-01,7.454739084132055993e-02,8.743405275779377206e+00,-3.621103117505995450e-01,3.587529976019184552e+00
8.618035357273433616e-01,-9.158679446219382403e-02,-1.128860489882854146e-01,5.431309904153354406e-02,8.712230215827338142e+00,-3.597122302158273222e-01,3.503597122302158251e+00
8.667596818860023866e-01,-7.348242811501597138e-02,-9.691160809371672513e-02,4.153354632587859252e-02,8.719424460431655532e+00,-3.477218225419664299e-01,3.424460431654676285e+00
8.717158280446613006e-01,-5.218317358892438779e-02,-7.241746538871139671e-02,3.088391906283280072e-02,8.685851318944843413e+00,-3.237410071942445899e-01,3.422062350119904117e+00
8.766719742033203255e-01,-2.981895633652822258e-02,-4.472843450479233041e-02,2.236421725239616520e-02,8.640287769784173122e+00,-3.069544364508393075e-01,3.525179856115107757e+00
8.816281203619792395e-01,-1.384451544195953142e-02,-2.662406815761448470e-02,7.454739084132055646e-03,8.613908872901678393e+00,-3.141486810551558650e-01,3.642685851318944845e+00
8.865842665206382645e-01,-8.519701810436635520e-03,-2.023429179978700893e-02,-9.584664536741213658e-03,8.537170263788969038e+00,-2.422062350119904006e-01,3.733812949640287648e+00
8.915404126792971784e-01,-4.259850905218317760e-03,-1.810436634717784918e-02,-2.555910543130990309e-02,8.467625899280575297e+00,-1.199040767386091166e-01,3.834532374100719565e+00
8.964965588379562034e-01,-2.129925452609158880e-03,-1.810436634717784918e-02,-3.194888178913737886e-02,8.381294964028777272e+00,5.755395683453237710e-02,3.913669064748201532e+00
9.014527049966151173e-01,-2.129925452609158880e-03,-1.703940362087327104e-02,-3.301384451544196047e-02,8.321342925659472201e+00,1.702637889688249362e-01,4.047961630695443347e+00
9.064088511552741423e-01,-9.584664536741213658e-03,-2.662406815761448470e-02,-2.875399361022364098e-02,8.323741007194245256e+00,2.254196642685851182e-01,4.208633093525179447e+00
9.113649973139330562e-01,-2.129925452609158706e-02,-4.685835995740149362e-02,-2.662406815761448470e-02,8.306954436450839196e+00,2.925659472422062479e-01,4.261390887290168017e+00
9.163211434725920812e-01,-3.727369542066027996e-02,-7.774227902023429781e-02,-1.916932907348242732e-02,8.273381294964028854e+00,3.477218225419664299e-01,4.251798561151079348e+00
9.212772896312509951e-01,-5.218317358892438779e-02,-1.043663471778487756e-01,-7.454739084132055646e-03,8.244604316546762846e+00,3.525179856115107646e-01,4.079136690647482411e+00
9.262334357899100201e-01,-6.602768903088392094e-02,-1.160809371671991524e-01,6.389776357827475772e-03,8.258992805755395850e+00,3.165467625899280324e-01,3.952038369304556209e+00
9.311895819485689341e-01,-7.241746538871139671e-02,-1.182108626198083018e-01,1.916932907348242732e-02,8.316546762589927866e+00,1.918465227817745811e-01,3.925659472422062368e+00
9.361457281072279590e-01,-7.667731629392970927e-02,-1.256656017039403661e-01,2.981895633652822258e-02,8.381294964028777272e+00,3.597122302158273222e-02,3.834532374100719565e+00
9.411018742658868730e-01,-7.987220447284344715e-02,-1.373801916932907430e-01,3.514376996805111675e-02,8.376498800959232938e+00,-3.836930455635491344e-02,3.592326139088728887e+00
9.460580204245458980e-01,-7.667731629392970927e-02,-1.395101171458998923e-01,3.407880724174654208e-02,8.369304556354915547e+00,-1.151079136690647542e-01,3.306954436450839196e+00
9.510141665832048119e-01,-7.135250266240682204e-02,-1.160809371671991524e-01,3.194888178913737886e-02,8.484412470023981356e+00,-1.846522781774580235e-01,3.052757793764988126e+00
9.559703127418637258e-01,-6.815761448349308416e-02,-7.880724174653887248e-02,3.088391906283280072e-02,8.673860911270983465e+00,-2.565947242206235157e-01,2.947242206235011874e+00
9.609264589005227508e-01,-5.963791267305644517e-02,-3.194888178913737886e-02,2.129925452609158706e-02,8.731414868105515481e+00,-2.781774580335731328e-01,2.952038369304556209e+00
9.658826050591816648e-01,-5.324813631522896940e-02,2.023429179978700893e-02,1.171458998935037341e-02,8.705035971223020752e+00,-2.206235011990407557e-01,3.117505995203837088e+00
9.708387512178406897e-01,-5.005324813631523151e-02,6.176783812566560145e-02,9.584664536741213658e-03,8.633093525179855732e+00,-2.038369304556355011e-01,3.263788968824940184e+00
9.757948973764996037e-01,-5.111821086261980618e-02,9.158679446219382403e-02,6.389776357827475772e-03,8.580335731414868050e+00,-1.990407673860911386e-01,3.364508393285371657e+00
9.807510435351586287e-01,-5.644302449414270728e-02,1.182108626198083018e-01,-7.454739084132055646e-03,8.501199040767385640e+00,-1.294964028776978415e-01,3.582733812949640217e+00
9.857071896938175426e-01,-6.496272630457934627e-02,1.352502662406815659e-01,-1.703940362087327104e-02,8.431654676258993675e+00,-2.877697841726618855e-02,3.880095923261390745e+00
9.906633358524765676e-01,-6.922257720979765883e-02,1.309904153354632672e-01,-1.277955271565495154e-02,8.400479616306954611e+00,-2.398081534772182263e-02,4.071942446043165909e+00
9.956194820111354815e-01,-6.496272630457934627e-02,1.171458998935037271e-01,-5.324813631522896766e-03,8.441247002398082344e+00,-1.630695443645084064e-01,4.093525179856115415e+00
1.000575628169794395e+00,-6.283280085197018305e-02,1.096911608093716767e-01,-9.584664536741213658e-03,8.458033573141486627e+00,-1.942446043165467762e-01,4.163069544364508268e+00
1.005531774328453309e+00,-6.070287539936101984e-02,1.043663471778487756e-01,-1.597444089456868943e-02,8.359712230215826878e+00,-6.235011990407673954e-02,4.342925659472421707e+00
1.010487920487112223e+00,-5.431309904153354406e-02,8.626198083067092293e-02,-1.171458998935037341e-02,8.258992805755395850e+00,3.117505995203836977e-02,4.505995203836930862e+00
1.015444066645771359e+00,-4.792332268370606829e-02,5.750798722044728195e-02,3.194888178913737886e-03,8.227817745803356786e+00,-3.836930455635491344e-02,4.522781774580336034e+00
1.020400212804430273e+00,-4.046858359957401785e-02,3.088391906283280072e-02,1.384451544195953142e-02,8.333333333333333925e+00,-2.398081534772182333e-01,4.414868105515587615e+00
1.025356358963089187e+00,-3.620873269435569836e-02,8.519701810436635520e-03,9.584664536741213658e-03,8.386091127098321607e+00,-3.189448441247002553e-01,4.369304556354916436e+00
1.030312505121748101e+00,-3.301384451544196047e-02,-1.277955271565495154e-02,-6.389776357827475772e-03,8.326139088729016535e+00,-2.589928057553956831e-01,4.275779376498801021e+00
1.035268651280407237e+00,-2.449414270500532495e-02,-3.620873269435569836e-02,-9.584664536741213658e-03,8.333333333333333925e+00,-2.158273381294963933e-01,4.139088729016786594e+00
1.040224797439066151e+00,-1.490947816826411129e-02,-4.685835995740149362e-02,-4.259850905218317760e-03,8.443645083932853623e+00,-3.021582733812949728e-01,3.911270983213429364e+00
1.045180943597725065e+00,-6.389776357827475772e-03,-4.259850905218317413e-02,-7.454739084132055646e-03,8.594724220623501054e+00,-4.316546762589927866e-01,3.791366906474820109e+00
1.050137089756383979e+00,5.324813631522896766e-03,-2.768903088391906284e-02,-2.129925452609158706e-02,8.659472422062350461e+00,-4.412470023980815115e-01,3.798561151079136611e+00
1.055093235915043115e+00,1.597444089456868943e-02,-1.916932907348242732e-02,-3.407880724174654208e-02,8.671462829736210409e+00,-4.052757793764987793e-01,3.832134292565947398e+00
1.060049382073702029e+00,2.981895633652822258e-02,-1.597444089456868943e-02,-4.153354632587859252e-02,8.599520383693045389e+00,-3.980815347721822772e-01,3.760191846522781933e+00
1.065005528232360943e+00,3.940362087326943624e-02,-7.454739084132055646e-03,-5.005324813631523151e-02,8.613908872901678393e+00,-4.244604316546762846e-01,3.676258992805755188e+00
1.069961674391019857e+00,4.898828541001064990e-02,1.171458998935037341e-02,-6.176783812566560145e-02,8.640287769784173122e+00,-4.196642685851318944e-01,3.700239808153477306e+00
1.074917820549678993e+00,6.176783812566560145e-02,2.981895633652822258e-02,-6.922257720979765883e-02,8.647482014388488736e+00,-3.956834532374100544e-01,3.846522781774580402e+00
1.079873966708337907e+00,7.135250266240682204e-02,2.875399361022364098e-02,-7.454739084132055993e-02,8.611510791366907114e+00,-3.884892086330935523e-01,3.884892086330935079e+00
1.084830112866996821e+00,7.987220447284344715e-02,2.449414270500532495e-02,-8.626198083067092293e-02,8.508393285371703030e+00,-3.764988009592326046e-01,3.817745803357313950e+00
1.089786259025655735e+00,8.839190628328008614e-02,2.342917997870074681e-02,-9.371671991480298725e-02,8.474820143884892687e+00,-3.405275779376498724e-01,3.726618705035971146e+00
1.094742405184314871e+00,9.691160809371672513e-02,2.662406815761448470e-02,-1.022364217252396124e-01,8.529976019184651648e+00,-2.637889688249400733e-01,3.714628297362110310e+00
1.099698551342973785e+00,9.584664536741213658e-02,3.194888178913737886e-02,-1.043663471778487756e-01,8.589928057553956720e+00,-2.134292565947242259e-01,3.714628297362110310e+00
1.104654697501632699e+00,9.158679446219382403e-02,3.727369542066027996e-02,-1.043663471778487756e-01,8.645083932853717457e+00,-2.182254196642685884e-01,3.640287769784172678e+00
1.109610843660291613e+00,8.200212992545261037e-02,4.472843450479233041e-02,-1.064962726304579388e-01,8.755395683453237154e+00,-1.918465227817745811e-01,3.539568345323741205e+00
1.114566989818950526e+00,6.922257720979765883e-02,6.389776357827475772e-02,-1.160809371671991524e-01,8.848920863309352569e+00,-1.606714628297362113e-01,3.489208633093525247e+00
1.119523135977609662e+00,5.431309904153354406e-02,9.158679446219382403e-02,-1.235356762513312029e-01,8.870503597122302963e+00,-9.352517985611510931e-02,3.580335731414868050e+00
1.124479282136268576e+00,3.727369542066027996e-02,1.096911608093716767e-01,-1.235356762513312029e-01,8.839328537170263900e+00,-3.836930455635491344e-02,3.741007194244604150e+00
1.129435428294927490e+00,2.449414270500532495e-02,1.160809371671991524e-01,-1.171458998935037271e-01,8.846522781774579514e+00,-5.995203836930455832e-02,3.817745803357313950e+00
1.134391574453586404e+00,1.171458998935037341e-02,1.182108626198083018e-01,-1.118210862619808260e-01,8.841726618705035179e+00,-6.954436450839328321e-02,3.860911270983213406e+00
1.139347720612245540e+00,-1.064962726304579440e-03,1.182108626198083018e-01,-1.128860489882854146e-01,8.808153477218224836e+00,-7.673860911270982688e-02,3.872901678657074243e+00
1.144303866770904454e+00,-1.384451544195953142e-02,1.160809371671991524e-01,-1.096911608093716767e-01,8.812949640287769171e+00,-1.007194244604316530e-01,3.920863309352518034e+00
1.149260012929563368e+00,-2.236421725239616520e-02,1.128860489882854146e-01,-1.054313099041533502e-01,8.824940047961630896e+00,-1.438848920863309289e-01,3.952038369304556209e+00
1.154216159088222282e+00,-2.555910543130990309e-02,1.086261980830670881e-01,-1.011714589989350377e-01,8.877697841726618577e+00,-2.206235011990407557e-01,3.937649880095923205e+00
1.159172305246881418e+00,-2.023429179978700893e-02,1.118210862619808260e-01,-1.033013844515442009e-01,8.901678657074340251e+00,-2.949640287769784153e-01,3.971223021582733992e+00
1.164128451405540332e+00,-9.584664536741213658e-03,1.139510117145899892e-01,-1.064962726304579388e-01,8.868105515587529908e+00,-2.925659472422062479e-01,3.973621103117506159e+00
1.169084597564199246e+00,1.064962726304579440e-03,1.160809371671991524e-01,-1.064962726304579388e-01,8.829736211031175230e+00,-2.422062350119904006e-01,3.973621103117506159e+00
1.174040743722858160e+00,1.597444089456868943e-02,1.214057507987220397e-01,-1.043663471778487756e-01,8.796163069544364888e+00,-1.942446043165467762e-01,4.043165467625899012e+00
1.178996889881517296e+00,2.236421725239616520e-02,1.203407880724174650e-01,-1.022364217252396124e-01,8.827338129496402175e+00,-9.592326139088729053e-02,4.182254196642685606e+00
1.183953036040176210e+00,1.597444089456868943e-02,1.086261980830670881e-01,-1.011714589989350377e-01,8.748201438848921541e+00,4.556354916067146404e-02,4.314148681055155699e+00
1.188909182198835124e+00,1.064962726304579440e-03,7.987220447284344715e-02,-9.797657082002129980e-02,8.693045563549160804e+00,1.462829736211031240e-01,4.338129496402877372e+00
1.193865328357494038e+00,-1.597444089456868943e-02,4.579339723109691201e-02,-8.626198083067092293e-02,8.705035971223020752e+00,1.990407673860911386e-01,4.191846522781774276e+00
1.198821474516153174e+00,-4.153354632587859252e-02,2.768903088391906284e-02,-7.667731629392970927e-02,8.803357314148680501e+00,2.446043165467625957e-01,4.047961630695443347e+00
1.203777620674812088e+00,-6.922257720979765883e-02,1.597444089456868943e-02,-6.602768903088392094e-02,8.875299760191847298e+00,2.613908872901678504e-01,3.985611510791366996e+00
1.208733766833471002e+00,-9.904153354632587447e-02,8.519701810436635520e-03,-5.750798722044728195e-02,8.956834532374100988e+00,2.805755395683453002e-01,3.908872901678657197e+00
1.213689912992129916e+00,-1.320553780617678419e-01,3.194888178913737886e-03,-5.431309904153354406e-02,9.009592326139088669e+00,2.110311750599520308e-01,3.762589928057554101e+00
1.218646059150789052e+00,-1.597444089456868943e-01,2.129925452609158880e-03,-4.685835995740149362e-02,9.026378896882494729e+00,1.151079136690647542e-01,3.580335731414868050e+00
1.223602205309447966e+00,-1.799787007454738963e-01,1.171458998935037341e-02,-4.259850905218317413e-02,9.083932853717026745e+00,0.000000000000000000e+00,3.446043165467625791e+00
1.228558351468106880e+00,-1.938232161874334503e-01,3.407880724174654208e-02,-4.366347177848775574e-02,9.136690647482014427e+00,-5.035971223021582649e-02,3.352517985611510820e+00
1.233514497626765793e+00,-1.980830670926517489e-01,6.070287539936101984e-02,-4.685835995740149362e-02,9.187050359712230829e+00,-1.127098321342925591e-01,3.321342925659472201e+00
1.238470643785424929e+00,-2.034078807241746500e-01,8.839190628328008614e-02,-4.898828541001064990e-02,9.151079136690647431e+00,-1.438848920863309289e-01,3.393285371702638109e+00
1.243426789944083843e+00,-2.055378061767837994e-01,1.128860489882854146e-01,-5.005324813631523151e-02,9.086330935251798024e+00,-1.127098321342925591e-01,3.496402877697841749e+00
1.248382936102742757e+00,-2.012779552715655007e-01,1.309904153354632672e-01,-5.218317358892438779e-02,9.052757793764987682e+00,-1.366906474820143991e-01,3.585131894484412385e+00
1.253339082261401671e+00,-1.938232161874334503e-01,1.437699680511182188e-01,-5.324813631522896940e-02,9.052757793764987682e+00,-1.846522781774580235e-01,3.616306954436451004e+00
1.258295228420060807e+00,-1.863684771033013721e-01,1.533546325878594185e-01,-5.750798722044728195e-02,9.055155875299760737e+00,-1.438848920863309289e-01,3.712230215827338142e+00
1.263251374578719721e+00,-1.725239616613418459e-01,1.618743343982960714e-01,-6.283280085197018305e-02,9.035971223021583398e+00,-8.872901678657074687e-02,3.810551558752997447e+00
1.268207520737378635e+00,-1.618743343982960714e-01,1.629392971246006461e-01,-6.496272630457934627e-02,8.995203836930455665e+00,-2.877697841726618855e-02,3.925659472422062368e+00
1.273163666896037549e+00,-1.458998935037273681e-01,1.640042598509052207e-01,-6.176783812566560145e-02,8.976019184652278327e+00,5.275779376498800771e-02,3.940047961630695372e+00
1.278119813054696463e+00,-1.341853035143769912e-01,1.629392971246006461e-01,-5.750798722044728195e-02,8.983213429256593940e+00,3.597122302158273222e-02,3.983213429256594829e+00
1.283075959213355599e+00,-1.214057507987220397e-01,1.608093716719914690e-01,-5.644302449414270728e-02,8.992805755395682610e+00,5.035971223021582649e-02,4.086330935251798913e+00
1.288032105372014513e+00,-1.139510117145899892e-01,1.554845580404685956e-01,-5.644302449414270728e-02,8.973621103117505271e+00,9.832134292565947176e-02,4.199040767386090778e+00
1.292988251530673427e+00,-1.033013844515442009e-01,1.373801916932907430e-01,-5.218317358892438779e-02,8.954436450839327932e+00,1.079136690647481966e-01,4.225419664268585507e+00
1.297944397689332341e+00,-9.158679446219382403e-02,1.235356762513312029e-01,-4.472843450479233041e-02,8.983213429256593940e+00,9.352517985611510931e-02,4.165467625899280435e+00
1.302900543847991477e+00,-8.306709265175718504e-02,1.160809371671991524e-01,-4.259850905218317413e-02,9.050359712230216402e+00,2.158273381294964141e-02,4.103117505995204084e+00
1.307856690006650391e+00,-7.454739084132055993e-02,1.139510117145899892e-01,-4.472843450479233041e-02,9.074340527577938076e+00,-9.592326139088728360e-03,4.067146282973620686e+00
1.312812836165309305e+00,-6.176783812566560145e-02,1.118210862619808260e-01,-4.898828541001064990e-02,9.059952038369305072e+00,-6.474820143884892076e-02,4.103117505995204084e+00
1.317768982323968219e+00,-4.898828541001064990e-02,1.118210862619808260e-01,-5.644302449414270728e-02,9.045563549160672068e+00,-7.673860911270982688e-02,4.131894484412470092e+00
1.322725128482627355e+00,-3.833865814696485463e-02,1.118210862619808260e-01,-6.496272630457934627e-02,8.973621103117505271e+00,-4.796163069544364527e-02,4.170263788968824770e+00
1.327681274641286269e+00,-3.514376996805111675e-02,1.064962726304579388e-01,-7.454739084132055993e-02,8.916067146282973255e+00,2.877697841726618855e-02,4.237410071942446343e+00
1.332637420799945183e+00,-3.620873269435569836e-02,9.265175718849839870e-02,-8.732694355697551147e-02,8.892086330935251581e+00,5.515587529976018893e-02,4.335731414868105205e+00
1.337593566958604097e+00,-3.833865814696485463e-02,7.135250266240682204e-02,-9.478168264110756192e-02,8.860911270983214294e+00,8.872901678657074687e-02,4.419664268585131950e+00
1.342549713117263233e+00,-3.833865814696485463e-02,4.579339723109691201e-02,-1.022364217252396124e-01,8.880095923261391633e+00,7.913669064748200810e-02,4.318944844124700033e+00
1.347505859275922147e+00,-4.792332268370606829e-02,2.342917997870074681e-02,-1.107561235356762513e-01,8.920863309352517589e+00,1.007194244604316530e-01,4.247002398081535013e+00
1.352462005434581060e+00,-5.111821086261980618e-02,1.064962726304579353e-02,-1.160809371671991524e-01,8.949640287769783598e+00,1.798561151079136611e-01,4.215827338129496837e+00
1.357418151593239974e+00,-5.218317358892438779e-02,2.129925452609158880e-03,-1.182108626198083018e-01,8.968824940047960936e+00,2.374100719424460382e-01,4.177458033573141272e+00
1.362374297751899110e+00,-5.431309904153354406e-02,-8.519701810436635520e-03,-1.118210862619808260e-01,8.992805755395682610e+00,1.990407673860911386e-01,4.098321342925659749e+00
1.367330443910558024e+00,-5.537806176783812567e-02,-1.703940362087327104e-02,-1.096911608093716767e-01,9.045563549160672068e+00,1.582733812949640162e-01,4.000000000000000000e+00
1.372286590069216938e+00,-5.750798722044728195e-02,-2.236421725239616520e-02,-1.128860489882854146e-01,9.098321342925659749e+00,1.630695443645084064e-01,3.964028776978417046e+00
1.377242736227875852e+00,-5.537806176783812567e-02,-1.916932907348242732e-02,-1.150159744408945639e-01,9.079136690647482411e+00,1.726618705035971313e-01,3.882494004796162912e+00
1.382198882386534988e+00,-5.537806176783812567e-02,-1.810436634717784918e-02,-1.128860489882854146e-01,9.083932853717026745e+00,1.414868105515587615e-01,3.815347721822541782e+00
1.387155028545193902e+00,-5.324813631522896940e-02,-9.584664536741213658e-03,-1.118210862619808260e-01,9.107913669064748419e+00,9.592326139088729053e-02,3.729016786570743314e+00
1.392111174703852816e+00,-5.537806176783812567e-02,3.194888178913737886e-03,-1.182108626198083018e-01,9.131894484412470092e+00,8.153477218225420320e-02,3.712230215827338142e+00
1.397067320862511730e+00,-5.963791267305644517e-02,1.171458998935037341e-02,-1.267305644302449408e-01,9.100719424460431028e+00,1.151079136690647542e-01,3.714628297362110310e+00
1.402023467021170866e+00,-6.389776357827475772e-02,1.490947816826411129e-02,-1.288604898828540901e-01,9.071942446043165020e+00,1.678657074340527688e-01,3.724220623501198979e+00
1.406979613179829780e+00,-7.241746538871139671e-02,2.342917997870074681e-02,-1.299254526091586925e-01,9.079136690647482411e+00,2.038369304556355011e-01,3.697841726618705138e+00
1.411935759338488694e+00,-8.306709265175718504e-02,3.407880724174654208e-02,-1.320553780617678419e-01,9.052757793764987682e+00,2.182254196642685884e-01,3.657074340527577849e+00
1.416891905497147608e+00,-9.691160809371672513e-02,4.366347177848775574e-02,-1.363152289669861683e-01,9.045563549160672068e+00,2.613908872901678504e-01,3.731414868105515481e+00
1.421848051655806744e+00,-1.086261980830670881e-01,5.111821086261980618e-02,-1.341853035143769912e-01,9.064748201438849406e+00,2.949640287769784153e-01,3.798561151079136611e+00
1.426804197814465658e+00,-1.182108626198083018e-01,5.644302449414270728e-02,-1.331203407880724165e-01,9.050359712230216402e+00,3.189448441247002553e-01,3.822541966426858728e+00
1.431760343973124572e+00,-1.277955271565495154e-01,6.496272630457934627e-02,-1.320553780617678419e-01,9.031175059952039064e+00,3.836930455635491621e-01,3.925659472422062368e+00
1.436716490131783486e+00,-1.363152289669861683e-01,6.815761448349308416e-02,-1.203407880724174650e-01,8.997601918465226944e+00,4.796163069544364665e-01,4.064748201438848518e+00
1.441672636290442400e+00,-1.448349307774227934e-01,5.857294994675186356e-02,-1.075612353567625135e-01,8.968824940047960936e+00,5.419664268585131506e-01,4.172661870503596937e+00
1.446628782449101536e+00,-1.533546325878594185e-01,4.259850905218317413e-02,-9.265175718849839870e-02,8.983213429256593940e+00,4.940047961630695261e-01,4.122302158273381423e+00
1.451584928607760450e+00,-1.608093716719914690e-01,3.194888178913737886e-02,-8.413205537806177359e-02,9.038369304556354678e+00,4.244604316546762846e-01,4.055155875299759849e+00
1.456541074766419364e+00,-1.735889243876464205e-01,2.555910543130990309e-02,-7.667731629392970927e-02,9.086330935251798024e+00,4.028776978417266119e-01,4.002398081534772167e+00
1.461497220925078278e+00,-1.778487752928647470e-01,2.236421725239616520e-02,-7.241746538871139671e-02,9.067146282973620686e+00,3.669064748201438797e-01,3.968824940047961825e+00
1.466453367083737414e+00,-1.799787007454738963e-01,2.236421725239616520e-02,-6.709265175718849561e-02,9.117505995203837088e+00,2.781774580335731328e-01,3.959232613908872711e+00
1.471409513242396327e+00,-1.714589989350372712e-01,2.449414270500532495e-02,-6.709265175718849561e-02,9.153477218225420486e+00,1.798561151079136611e-01,3.904076738609112862e+00
1.476365659401055241e+00,-1.597444089456868943e-01,2.768903088391906284e-02,-6.709265175718849561e-02,9.165467625899280435e+00,9.352517985611510931e-02,3.841726618705036067e+00
1.481321805559714155e+00,-1.458998935037273681e-01,3.301384451544196047e-02,-7.241746538871139671e-02,9.163069544364509156e+00,8.633093525179856564e-02,3.757793764988009766e+00
1.486277951718373291e+00,-1.277955271565495154e-01,4.579339723109691201e-02,-7.774227902023429781e-02,9.134292565947241371e+00,8.393285371702638442e-02,3.702637889688249473e+00
1.491234097877032205e+00,-1.086261980830670881e-01,6.176783812566560145e-02,-8.413205537806177359e-02,9.167865707434053490e+00,9.832134292565947176e-02,3.781774580335731439e+00
1.496190244035691119e+00,-8.732694355697551147e-02,7.454739084132055993e-02,-8.306709265175718504e-02,9.148681055155876152e+00,1.366906474820143991e-01,3.894484412470024193e+00
1.501146390194350033e+00,-6.602768903088392094e-02,8.093716719914803570e-02,-8.413205537806177359e-02,9.115107913669064033e+00,1.390887290167865664e-01,3.949640287769784042e+00
1.506102536353009169e+00,-4.792332268370606829e-02,8.093716719914803570e-02,-8.413205537806177359e-02,9.062350119904076351e+00,1.942446043165467762e-01,3.976019184652278327e+00
1.511058682511668083e+00,-3.514376996805111675e-02,7.987220447284344715e-02,-8.413205537806177359e-02,9.047961630695443347e+00,2.661870503597122406e-01,4.026378896882493841e+00
1.516014828670326997e+00,-3.194888178913737886e-02,8.306709265175718504e-02,-8.839190628328008614e-02,9.047961630695443347e+00,3.357314148681055377e-01,4.151079136690647431e+00
1.520970974828985911e+00,-3.620873269435569836e-02,7.667731629392970927e-02,-8.519701810436634826e-02,9.026378896882494729e+00,3.788968824940047719e-01,4.318944844124700033e+00
1.525927120987645047e+00,-4.366347177848775574e-02,6.283280085197018305e-02,-8.200212992545261037e-02,9.019184652278177339e+00,4.508393285371702364e-01,4.376498800959232938e+00
1.530883267146303961e+00,-5.218317358892438779e-02,4.153354632587859252e-02,-7.987220447284344715e-02,8.985611510791366996e+00,4.412470023980815115e-01,4.357314148681055599e+00
1.535839413304962875e+00,-6.070287539936101984e-02,2.023429179978700893e-02,-8.093716719914803570e-02,8.964028776978416602e+00,4.436450839328537343e-01,4.381294964028777272e+00
1.540795559463621789e+00,-6.815761448349308416e-02,2.129925452609158880e-03,-7.667731629392970927e-02,9.002398081534773056e+00,4.604316546762590168e-01,4.434052757793764954e+00
1.545751705622280925e+00,-7.241746538871139671e-02,-1.277955271565495154e-02,-6.815761448349308416e-02,9.002398081534773056e+00,4.316546762589927866e-01,4.419664268585131950e+00
1.550707851780939839e+00,-7.667731629392970927e-02,-3.088391906283280072e-02,-6.070287539936101984e-02,9.002398081534773056e+00,4.124700239808153368e-01,4.340527577937649539e+00
1.555663997939598753e+00,-8.200212992545261037e-02,-5.005324813631523151e-02,-5.111821086261980618e-02,9.002398081534773056e+00,4.268585131894484519e-01,4.299760191846522694e+00
1.560620144098257667e+00,-8.200212992545261037e-02,-6.070287539936101984e-02,-4.685835995740149362e-02,9.000000000000000000e+00,4.268585131894484519e-01,4.182254196642685606e+00
1.565576290256916803e+00,-8.093716719914803570e-02,-7.028753993610223350e-02,-3.833865814696485463e-02,9.007194244604317390e+00,4.292565947242206192e-01,4.033573141486810343e+00
1.570532436415575717e+00,-7.987220447284344715e-02,-6.922257720979765883e-02,-2.981895633652822258e-02,9.091127098321342359e+00,3.836930455635491621e-01,3.920863309352518034e+00
1.575488582574234631e+00,-7.667731629392970927e-02,-6.176783812566560145e-02,-2.662406815761448470e-02,9.153477218225420486e+00,3.597122302158273222e-01,3.892086330935251581e+00
1.580444728732893545e+00,-7.454739084132055993e-02,-5.111821086261980618e-02,-2.129925452609158706e-02,9.134292565947241371e+00,3.501199040767385973e-01,3.863309352517985573e+00
1.585400874891552681e+00,-6.922257720979765883e-02,-4.472843450479233041e-02,-1.490947816826411129e-02,9.115107913669064033e+00,3.525179856115107646e-01,3.868105515587529908e+00
1.590357021050211594e+00,-6.602768903088392094e-02,-4.046858359957401785e-02,-9.584664536741213658e-03,9.059952038369305072e+00,3.381294964028777050e-01,3.856115107913669071e+00
1.595313167208870508e+00,-6.815761448349308416e-02,-3.301384451544196047e-02,-8.519701810436635520e-03,9.043165467625899012e+00,3.477218225419664299e-01,3.877697841726618577e+00
1.600269313367529422e+00,-7.028753993610223350e-02,-2.981895633652822258e-02,-6.389776357827475772e-03,9.050359712230216402e+00,3.764988009592326046e-01,3.930455635491606703e+00
1.605225459526188336e+00,-7.561235356762513460e-02,-3.301384451544196047e-02,-3.194888178913737886e-03,9.014388489208633004e+00,4.076738609112710021e-01,3.928057553956834536e+00
1.610181605684847472e+00,-8.413205537806177359e-02,-3.727369542066027996e-02,-5.324813631522896766e-03,8.997601918465226944e+00,4.268585131894484519e-01,3.942446043165467540e+00
1.615137751843506386e+00,-9.371671991480298725e-02,-3.940362087326943624e-02,-1.064962726304579440e-03,8.959232613908872267e+00,4.292565947242206192e-01,3.887290167865707247e+00
1.620093898002165300e+00,-1.043663471778487756e-01,-4.046858359957401785e-02,4.259850905218317760e-03,8.935251798561150594e+00,3.836930455635491621e-01,3.920863309352518034e+00
1.625050044160824214e+00,-1.128860489882854146e-01,-3.833865814696485463e-02,5.324813631522896766e-03,8.976019184652278327e+00,3.309352517985611475e-01,3.961630695443644878e+00
1.630006190319483350e+00,-1.150159744408945639e-01,-4.366347177848775574e-02,3.194888178913737886e-03,8.949640287769783598e+00,2.589928057553956831e-01,3.947242206235011874e+00
1.634962336478142264e+00,-1.139510117145899892e-01,-4.792332268370606829e-02,-2.129925452609158880e-03,8.956834532374100988e+00,2.158273381294963933e-01,3.892086330935251581e+00
1.639918482636801178e+00,-1.064962726304579388e-01,-4.366347177848775574e-02,-5.324813631522896766e-03,8.947242206235012318e+00,2.086330935251798635e-01,3.832134292565947398e+00
1.644874628795460092e+00,-9.584664536741213658e-02,-3.407880724174654208e-02,-8.519701810436635520e-03,8.947242206235012318e+00,2.302158273381295084e-01,3.827338129496403063e+00
1.649830774954119228e+00,-8.093716719914803570e-02,-2.662406815761448470e-02,-6.389776357827475772e-03,8.976019184652278327e+00,1.918465227817745811e-01,3.829736211031175230e+00
1.654786921112778142e+00,-6.496272630457934627e-02,-2.129925452609158706e-02,-4.259850905218317760e-03,8.980815347721822661e+00,1.774580335731414937e-01,3.882494004796162912e+00
1.659743067271437056e+00,-5.111821086261980618e-02,-2.236421725239616520e-02,-5.324813631522896766e-03,8.966426858513189657e+00,1.726618705035971313e-01,3.932853717026378870e+00
1.664699213430095970e+00,-3.727369542066027996e-02,-1.916932907348242732e-02,-7.454739084132055646e-03,8.959232613908872267e+00,2.182254196642685884e-01,3.949640287769784042e+00
1.669655359588755106e+00,-2.662406815761448470e-02,-1.810436634717784918e-02,-1.064962726304579353e-02,8.935251798561150594e+00,2.541966426858512929e-01,3.956834532374100544e+00
1.674611505747414020e+00,-2.129925452609158706e-02,-2.023429179978700893e-02,-1.384451544195953142e-02,8.877697841726618577e+00,3.117505995203836977e-01,3.985611510791366996e+00
1.679567651906072934e+00,-1.916932907348242732e-02,-2.768903088391906284e-02,-1.384451544195953142e-02,8.865707434052758629e+00,3.645083932853717124e-01,4.019184652278177339e+00
1.684523798064731848e+00,-2.129925452609158706e-02,-3.727369542066027996e-02,-1.384451544195953142e-02,8.865707434052758629e+00,3.908872901678657197e-01,4.026378896882493841e+00
1.689479944223390984e+00,-2.768903088391906284e-02,-5.111821086261980618e-02,-1.490947816826411129e-02,8.853717026378896904e+00,3.717026378896882699e-01,3.966426858513189657e+00
1.694436090382049898e+00,-2.981895633652822258e-02,-6.176783812566560145e-02,-1.490947816826411129e-02,8.870503597122302963e+00,3.261390887290168128e-01,3.899280575539568527e+00
1.699392236540708812e+00,-3.194888178913737886e-02,-6.602768903088392094e-02,-1.490947816826411129e-02,8.935251798561150594e+00,2.997601918465228055e-01,3.827338129496403063e+00
1.704348382699367725e+00,-3.407880724174654208e-02,-6.496272630457934627e-02,-1.490947816826411129e-02,8.990407673860911331e+00,2.517985611510791255e-01,3.709832134292565975e+00
1.709304528858026861e+00,-2.981895633652822258e-02,-5.324813631522896940e-02,-1.703940362087327104e-02,9.019184652278177339e+00,2.086330935251798635e-01,3.625899280575539674e+00
1.714260675016685775e+00,-2.555910543130990309e-02,-3.940362087326943624e-02,-1.703940362087327104e-02,9.021582733812950394e+00,1.870503597122302186e-01,3.582733812949640217e+00
1.719216821175344689e+00,-1.810436634717784918e-02,-2.236421725239616520e-02,-1.810436634717784918e-02,9.007194244604317390e+00,1.510791366906474864e-01,3.592326139088728887e+00
1.724172967334003603e+00,-1.064962726304579353e-02,-5.324813631522896766e-03,-2.129925452609158706e-02,8.949640287769783598e+00,1.798561151079136611e-01,3.647482014388489180e+00
1.729129113492662739e+00,-5.324813631522896766e-03,5.324813631522896766e-03,-2.449414270500532495e-02,8.920863309352517589e+00,1.918465227817745811e-01,3.731414868105515481e+00
1.734085259651321653e+00,-6.389776357827475772e-03,7.454739084132055646e-03,-2.875399361022364098e-02,8.916067146282973255e+00,2.086330935251798635e-01,3.755395683453237599e+00
1.739041405809980567e+00,-9.584664536741213658e-03,5.324813631522896766e-03,-3.194888178913737886e-02,8.947242206235012318e+00,2.398081534772182333e-01,3.719424460431654644e+00
1.743997551968639481e+00,-1.597444089456868943e-02,9.584664536741213658e-03,-4.046858359957401785e-02,8.930455635491606259e+00,2.997601918465228055e-01,3.712230215827338142e+00
1.748953698127298395e+00,-2.768903088391906284e-02,1.916932907348242732e-02,-4.792332268370606829e-02,8.882494004796162912e+00,3.932853717026378870e-01,3.827338129496403063e+00
1.753909844285957531e+00,-3.940362087326943624e-02,2.129925452609158706e-02,-5.005324813631523151e-02,8.829736211031175230e+00,4.508393285371702364e-01,3.952038369304556209e+00
1.758865990444616445e+00,-5.111821086261980618e-02,1.597444089456868943e-02,-4.366347177848775574e-02,8.786570743405276218e+00,4.244604316546762846e-01,4.000000000000000000e+00
1.763822136603275359e+00,-6.283280085197018305e-02,5.324813631522896766e-03,-4.259850905218317413e-02,8.832134292565946510e+00,3.956834532374100544e-01,4.002398081534772167e+00
1.768778282761934273e+00,-7.454739084132055993e-02,-2.129925452609158880e-03,-4.579339723109691201e-02,8.820143884892086561e+00,3.980815347721822772e-01,4.031175059952038175e+00
1.773734428920593409e+00,-8.306709265175718504e-02,-1.064962726304579353e-02,-4.472843450479233041e-02,8.741007194244604150e+00,4.244604316546762846e-01,4.050359712230215514e+00
1.778690575079252323e+00,-8.945686900958466081e-02,-1.916932907348242732e-02,-4.153354632587859252e-02,8.700239808153476417e+00,4.316546762589927866e-01,4.023980815347721673e+00
1.783646721237911237e+00,-9.158679446219382403e-02,-3.088391906283280072e-02,-3.727369542066027996e-02,8.743405275779377206e+00,3.860911270983213295e-01,3.954436450839328376e+00
1.788602867396570151e+00,-9.265175718849839870e-02,-3.833865814696485463e-02,-3.407880724174654208e-02,8.784172661870503163e+00,3.213429256594724226e-01,3.834532374100719565e+00
1.793559013555229287e+00,-9.371671991480298725e-02,-4.153354632587859252e-02,-3.833865814696485463e-02,8.834532374100719565e+00,2.877697841726618577e-01,3.721822541966426812e+00
1.798515159713888201e+00,-9.371671991480298725e-02,-3.620873269435569836e-02,-4.259850905218317413e-02,8.882494004796162912e+00,2.685851318944844079e-01,3.606714628297361891e+00
1.803471305872547115e+00,-8.839190628328008614e-02,-2.449414270500532495e-02,-5.005324813631523151e-02,8.952038369304556653e+00,2.350119904076738708e-01,3.501199040767386084e+00
1.808427452031206029e+00,-8.519701810436634826e-02,-6.389776357827475772e-03,-5.324813631522896940e-02,9.009592326139088669e+00,2.326139088729016757e-01,3.503597122302158251e+00
1.813383598189865165e+00,-7.987220447284344715e-02,1.490947816826411129e-02,-5.963791267305644517e-02,9.031175059952039064e+00,2.565947242206235157e-01,3.510791366906474753e+00
1.818339744348524079e+00,-7.987220447284344715e-02,3.407880724174654208e-02,-7.028753993610223350e-02,8.956834532374100988e+00,3.237410071942445899e-01,3.618705035971223172e+00
1.823295890507182992e+00,-7.880724174653887248e-02,4.366347177848775574e-02,-6.922257720979765883e-02,8.882494004796162912e+00,3.501199040767385973e-01,3.738609112709831983e+00
1.828252036665841906e+00,-7.667731629392970927e-02,4.472843450479233041e-02,-6.602768903088392094e-02,8.875299760191847298e+00,3.453237410071942626e-01,3.793764988009592276e+00
1.833208182824501042e+00,-7.348242811501597138e-02,4.259850905218317413e-02,-6.815761448349308416e-02,8.865707434052758629e+00,3.093525179856115304e-01,3.844124700239808234e+00
1.838164328983159956e+00,-6.709265175718849561e-02,4.153354632587859252e-02,-7.348242811501597138e-02,8.829736211031175230e+00,3.261390887290168128e-01,3.911270983213429364e+00
1.843120475141818870e+00,-5.750798722044728195e-02,3.940362087326943624e-02,-7.241746538871139671e-02,8.800959232613909222e+00,3.597122302158273222e-01,3.992805755395683498e+00
1.848076621300477784e+00,-4.472843450479233041e-02,2.981895633652822258e-02,-6.602768903088392094e-02,8.810551558752997892e+00,3.741007194244604372e-01,3.976019184652278327e+00
1.853032767459136920e+00,-2.768903088391906284e-02,2.129925452609158706e-02,-5.963791267305644517e-02,8.858513189448441238e+00,3.549160671462829875e-01,3.894484412470024193e+00
1.857988913617795834e+00,-9.584664536741213658e-03,2.129925452609158706e-02,-5.750798722044728195e-02,8.892086330935251581e+00,3.309352517985611475e-01,3.844124700239808234e+00
1.862945059776454748e+00,3.194888178913737886e-03,2.129925452609158706e-02,-5.750798722044728195e-02,8.904076738609113306e+00,3.141486810551558650e-01,3.800959232613908778e+00
1.867901205935113662e+00,1.277955271565495154e-02,2.129925452609158706e-02,-5.750798722044728195e-02,8.913669064748201976e+00,3.333333333333333148e-01,3.786570743405275774e+00
1.872857352093772798e+00,2.236421725239616520e-02,2.342917997870074681e-02,-6.176783812566560145e-02,8.940047961630694928e+00,3.333333333333333148e-01,3.676258992805755188e+00
1.877813498252431712e+00,2.875399361022364098e-02,2.768903088391906284e-02,-6.389776357827475772e-02,8.968824940047960936e+00,3.333333333333333148e-01,3.601918465227817556e+00
1.882769644411090626e+00,3.407880724174654208e-02,3.620873269435569836e-02,-7.135250266240682204e-02,8.985611510791366996e+00,4.052757793764987793e-01,3.637889688249400511e+00
1.887725790569749540e+00,3.727369542066027996e-02,4.472843450479233041e-02,-7.348242811501597138e-02,8.966426858513189657e+00,4.796163069544364665e-01,3.697841726618705138e+00
1.892681936728408676e+00,3.727369542066027996e-02,4.792332268370606829e-02,-6.709265175718849561e-02,8.937649880095923649e+00,4.940047961630695261e-01,3.736211031175059816e+00
1.897638082887067590e+00,3.514376996805111675e-02,5.111821086261980618e-02,-6.070287539936101984e-02,8.980815347721822661e+00,4.604316546762590168e-01,3.750599520383693264e+00
1.902594229045726504e+00,2.981895633652822258e-02,5.537806176783812567e-02,-5.750798722044728195e-02,8.985611510791366996e+00,4.796163069544364665e-01,3.762589928057554101e+00
1.907550375204385418e+00,2.236421725239616520e-02,5.431309904153354406e-02,-5.750798722044728195e-02,9.019184652278177339e+00,5.347721822541966485e-01,3.824940047961630896e+00
1.912506521363044332e+00,1.597444089456868943e-02,5.431309904153354406e-02,-5.218317358892438779e-02,9.009592326139088669e+00,5.947242206235011652e-01,3.848920863309352569e+00
1.917462667521703468e+00,1.277955271565495154e-02,5.324813631522896940e-02,-3.833865814696485463e-02,9.055155875299760737e+00,5.923261390887289979e-01,3.844124700239808234e+00
1.922418813680362382e+00,9.584664536741213658e-03,5.963791267305644517e-02,-2.129925452609158706e-02,9.127098321342925757e+00,5.851318944844124958e-01,3.846522781774580402e+00
1.927374959839021296e+00,8.519701810436635520e-03,6.815761448349308416e-02,-8.519701810436635520e-03,9.143884892086331817e+00,5.995203836930456109e-01,3.853717026378896904e+00
1.932331105997680210e+00,5.324813631522896766e-03,7.348242811501597138e-02,3.194888178913737886e-03,9.119904076738608367e+00,6.067146282973621130e-01,3.863309352517985573e+00
1.937287252156339346e+00,-2.129925452609158880e-03,7.241746538871139671e-02,1.916932907348242732e-02,9.067146282973620686e+00,6.474820143884891799e-01,3.894484412470024193e+00
1.942243398314998259e+00,-1.384451544195953142e-02,7.348242811501597138e-02,3.620873269435569836e-02,9.043165467625899012e+00,5.683453237410072134e-01,3.887290167865707247e+00
1.947199544473657173e+00,-2.875399361022364098e-02,7.135250266240682204e-02,4.685835995740149362e-02,9.055155875299760737e+00,4.844124700239808012e-01,3.884892086330935079e+00
1.952155690632316087e+00,-4.579339723109691201e-02,6.709265175718849561e-02,4.792332268370606829e-02,9.074340527577938076e+00,4.028776978417266119e-01,3.875299760191846410e+00
1.957111836790975223e+00,-6.283280085197018305e-02,6.070287539936101984e-02,4.685835995740149362e-02,9.047961630695443347e+00,3.932853717026378870e-01,3.880095923261390745e+00
1.962067982949634137e+00,-7.454739084132055993e-02,5.431309904153354406e-02,4.792332268370606829e-02,9.059952038369305072e+00,3.741007194244604372e-01,3.829736211031175230e+00
1.967024129108293051e+00,-8.413205537806177359e-02,5.750798722044728195e-02,5.324813631522896940e-02,9.095923261390886694e+00,3.477218225419664299e-01,3.803357314148680945e+00
1.971980275266951965e+00,-9.158679446219382403e-02,6.389776357827475772e-02,6.070287539936101984e-02,9.127098321342925757e+00,2.877697841726618577e-01,3.834532374100719565e+00
1.976936421425611101e+00,-9.052183173588924936e-02,7.028753993610223350e-02,6.709265175718849561e-02,9.136690647482014427e+00,2.422062350119904006e-01,3.851318944844124736e+00
1.981892567584270015e+00,-9.265175718849839870e-02,7.454739084132055993e-02,7.241746538871139671e-02,9.134292565947241371e+00,2.470023980815347631e-01,3.868105515587529908e+00
1.986848713742928929e+00,-9.797657082002129980e-02,7.667731629392970927e-02,7.454739084132055993e-02,9.141486810551558762e+00,2.038369304556355011e-01,3.935251798561151038e+00
1.991804859901587843e+00,-1.064962726304579388e-01,7.561235356762513460e-02,7.028753993610223350e-02,9.115107913669064033e+00,1.942446043165467762e-01,3.952038369304556209e+00
1.996761006060246979e+00,-1.182108626198083018e-01,7.028753993610223350e-02,6.496272630457934627e-02,9.112709832134292753e+00,1.966426858513189435e-01,4.021582733812949506e+00
2.001717152218906115e+00,-1.267305644302449408e-01,6.070287539936101984e-02,5.963791267305644517e-02,9.105515587529975363e+00,1.774580335731414937e-01,4.143884892086330929e+00
2.006673298377565029e+00,-1.277955271565495154e-01,5.005324813631523151e-02,5.537806176783812567e-02,9.148681055155876152e+00,9.832134292565947176e-02,4.127098321342925757e+00
2.011629444536223943e+00,-1.277955271565495154e-01,3.514376996805111675e-02,4.898828541001064990e-02,9.170263788968824770e+00,2.398081534772182090e-03,4.119904076738609255e+00
2.016585590694882857e+00,-1.267305644302449408e-01,2.555910543130990309e-02,4.046858359957401785e-02,9.158273381294964821e+00,-9.592326139088728360e-03,4.107913669064748419e+00
2.021541736853541771e+00,-1.203407880724174650e-01,1.384451544195953142e-02,3.301384451544196047e-02,9.139088729016785706e+00,-3.597122302158273222e-02,4.129496402877697925e+00
2.026497883012201129e+00,-1.171458998935037271e-01,1.064962726304579440e-03,2.662406815761448470e-02,9.131894484412470092e+00,-2.158273381294964141e-02,4.158273381294963933e+00
2.031454029170860043e+00,-1.096911608093716767e-01,-1.171458998935037341e-02,1.916932907348242732e-02,9.151079136690647431e+00,-7.194244604316546443e-02,4.091127098321343247e+00
2.036410175329518957e+00,-1.043663471778487756e-01,-2.236421725239616520e-02,6.389776357827475772e-03,9.136690647482014427e+00,-1.031175059952038342e-01,4.043165467625899012e+00
2.041366321488177871e+00,-9.904153354632587447e-02,-3.088391906283280072e-02,-3.194888178913737886e-03,9.115107913669064033e+00,-5.035971223021582649e-02,3.988009592326139163e+00
2.046322467646836785e+00,-9.691160809371672513e-02,-4.046858359957401785e-02,-1.277955271565495154e-02,9.143884892086331817e+00,-1.918465227817745672e-02,3.940047961630695372e+00
2.051278613805495699e+00,-9.052183173588924936e-02,-4.153354632587859252e-02,-1.810436634717784918e-02,9.165467625899280435e+00,-4.076738609112710160e-02,3.841726618705036067e+00
2.056234759964154613e+00,-9.052183173588924936e-02,-3.514376996805111675e-02,-2.449414270500532495e-02,9.187050359712230829e+00,-4.316546762589928282e-02,3.829736211031175230e+00
2.061190906122813526e+00,-9.265175718849839870e-02,-3.194888178913737886e-02,-3.407880724174654208e-02,9.172661870503597825e+00,-2.398081534772182090e-03,3.815347721822541782e+00
2.066147052281472440e+00,-9.265175718849839870e-02,-2.981895633652822258e-02,-4.153354632587859252e-02,9.155875299760191766e+00,3.597122302158273222e-02,3.815347721822541782e+00
2.071103198440131798e+00,-9.158679446219382403e-02,-2.768903088391906284e-02,-4.259850905218317413e-02,9.155875299760191766e+00,4.556354916067146404e-02,3.810551558752997447e+00
2.076059344598790712e+00,-8.519701810436634826e-02,-2.236421725239616520e-02,-4.366347177848775574e-02,9.211031175059952503e+00,5.755395683453237710e-02,3.762589928057554101e+00
2.081015490757449626e+00,-7.667731629392970927e-02,-1.597444089456868943e-02,-4.579339723109691201e-02,9.237410071942445455e+00,1.918465227817745672e-02,3.743405275779376318e+00
2.085971636916108540e+00,-6.709265175718849561e-02,-3.194888178913737886e-03,-4.792332268370606829e-02,9.225419664268585507e+00,5.035971223021582649e-02,3.767386091127098435e+00
2.090927783074767454e+00,-5.963791267305644517e-02,1.171458998935037341e-02,-4.898828541001064990e-02,9.184652278177457774e+00,1.031175059952038342e-01,3.875299760191846410e+00
2.095883929233426368e+00,-5.537806176783812567e-02,1.916932907348242732e-02,-4.898828541001064990e-02,9.136690647482014427e+00,1.654676258992805737e-01,3.995203836930455665e+00
2.100840075392085282e+00,-5.537806176783812567e-02,1.597444089456868943e-02,-4.685835995740149362e-02,9.098321342925659749e+00,1.822541966426858562e-01,4.069544364508392853e+00
2.105796221550744196e+00,-6.070287539936101984e-02,3.194888178913737886e-03,-4.366347177848775574e-02,9.088729016786571080e+00,1.702637889688249362e-01,4.064748201438848518e+00
2.110752367709403554e+00,-7.241746538871139671e-02,-8.519701810436635520e-03,-4.792332268370606829e-02,9.059952038369305072e+00,2.062350119904076684e-01,4.023980815347721673e+00
2.115708513868062468e+00,-8.732694355697551147e-02,-1.810436634717784918e-02,-4.685835995740149362e-02,9.057553956834532016e+00,2.422062350119904006e-01,4.038369304556354678e+00
2.120664660026721382e+00,-1.033013844515442009e-01,-2.449414270500532495e-02,-4.685835995740149362e-02,9.088729016786571080e+00,2.254196642685851182e-01,4.021582733812949506e+00
2.125620806185380296e+00,-1.182108626198083018e-01,-2.981895633652822258e-02,-5.005324813631523151e-02,9.091127098321342359e+00,2.038369304556355011e-01,3.964028776978417046e+00
2.130576952344039210e+00,-1.341853035143769912e-01,-2.875399361022364098e-02,-5.111821086261980618e-02,9.069544364508393741e+00,1.990407673860911386e-01,3.961630695443644878e+00
2.135533098502698124e+00,-1.469648562300319428e-01,-2.662406815761448470e-02,-5.218317358892438779e-02,9.059952038369305072e+00,1.870503597122302186e-01,3.918465227817745866e+00
2.140489244661357038e+00,-1.522896698615548439e-01,-2.449414270500532495e-02,-5.005324813631523151e-02,9.074340527577938076e+00,1.462829736211031240e-01,3.851318944844124736e+00
2.145445390820015952e+00,-1.554845580404685956e-01,-2.236421725239616520e-02,-4.898828541001064990e-02,9.100719424460431028e+00,7.194244604316546443e-02,3.784172661870503607e+00
2.150401536978675310e+00,-1.533546325878594185e-01,-1.490947816826411129e-02,-5.324813631522896940e-02,9.115107913669064033e+00,9.112709832134292809e-02,3.729016786570743314e+00
2.155357683137334224e+00,-1.522896698615548439e-01,-3.194888178913737886e-03,-5.963791267305644517e-02,9.002398081534773056e+00,8.872901678657074687e-02,3.767386091127098435e+00
2.160313829295993138e+00,-1.490947816826411199e-01,4.259850905218317760e-03,-6.283280085197018305e-02,8.990407673860911331e+00,6.714628297362110199e-02,3.856115107913669071e+00
2.165269975454652052e+00,-1.416400425985090417e-01,5.324813631522896766e-03,-6.496272630457934627e-02,9.064748201438849406e+00,2.637889688249400386e-02,3.870503597122302075e+00
2.170226121613310966e+00,-1.309904153354632672e-01,6.389776357827475772e-03,-7.667731629392970927e-02,9.076738609112709355e+00,-2.398081534772182090e-03,3.954436450839328376e+00
2.175182267771969880e+00,-1.235356762513312029e-01,5.324813631522896766e-03,-8.839190628328008614e-02,9.000000000000000000e+00,8.153477218225420320e-02,4.021582733812949506e+00
2.180138413930628793e+00,-1.128860489882854146e-01,-1.064962726304579440e-03,-9.052183173588924936e-02,8.959232613908872267e+00,1.966426858513189435e-01,4.038369304556354678e+00
2.185094560089287707e+00,-1.001064962726304630e-01,0.000000000000000000e+00,-8.839190628328008614e-02,8.940047961630694928e+00,2.374100719424460382e-01,4.016786570743405171e+00
2.190050706247947065e+00,-9.371671991480298725e-02,3.194888178913737886e-03,-8.519701810436634826e-02,8.904076738609113306e+00,2.853717026378896904e-01,4.086330935251798913e+00
2.195006852406605979e+00,-9.158679446219382403e-02,1.064962726304579440e-03,-8.200212992545261037e-02,8.860911270983214294e+00,3.021582733812949728e-01,4.239808153477218511e+00
2.199962998565264893e+00,-9.158679446219382403e-02,-1.277955271565495154e-02,-7.987220447284344715e-02,8.836930455635490844e+00,3.717026378896882699e-01,4.285371702637889690e+00
2.204919144723923807e+00,-8.945686900958466081e-02,-3.301384451544196047e-02,-7.028753993610223350e-02,8.824940047961630896e+00,4.052757793764987793e-01,4.206235011990407280e+00
2.209875290882582721e+00,-8.732694355697551147e-02,-3.940362087326943624e-02,-6.070287539936101984e-02,8.824940047961630896e+00,4.004796163069544446e-01,4.143884892086330929e+00
2.214831437041241635e+00,-8.732694355697551147e-02,-4.046858359957401785e-02,-4.898828541001064990e-02,8.884892086330935967e+00,4.148681055155875042e-01,4.098321342925659749e+00
2.219787583199900549e+00,-8.626198083067092293e-02,-4.046858359957401785e-02,-3.301384451544196047e-02,8.918465227817746310e+00,4.388489208633093441e-01,4.057553956834532016e+00
2.224743729358559463e+00,-8.306709265175718504e-02,-4.153354632587859252e-02,-1.916932907348242732e-02,8.930455635491606259e+00,4.412470023980815115e-01,4.011990407673860837e+00
2.229699875517218377e+00,-8.519701810436634826e-02,-4.259850905218317413e-02,-3.194888178913737886e-03,8.942446043165467984e+00,4.364508393285371768e-01,3.930455635491606703e+00
2.234656021675877735e+00,-8.626198083067092293e-02,-3.833865814696485463e-02,6.389776357827475772e-03,8.976019184652278327e+00,3.764988009592326046e-01,3.839328537170263900e+00
2.239612167834536649e+00,-9.371671991480298725e-02,-2.875399361022364098e-02,1.277955271565495154e-02,9.019184652278177339e+00,3.333333333333333148e-01,3.803357314148680945e+00
2.244568313993195563e+00,-1.054313099041533502e-01,-2.342917997870074681e-02,2.023429179978700893e-02,9.040767386091127733e+00,3.429256594724220397e-01,3.800959232613908778e+00
2.249524460151854477e+00,-1.139510117145899892e-01,-2.023429179978700893e-02,2.768903088391906284e-02,9.059952038369305072e+00,3.477218225419664299e-01,3.757793764988009766e+00
2.254480606310513391e+00,-1.256656017039403661e-01,-1.171458998935037341e-02,3.727369542066027996e-02,9.088729016786571080e+00,3.357314148681055377e-01,3.695443645083932971e+00
2.259436752469172305e+00,-1.331203407880724165e-01,4.259850905218317760e-03,4.153354632587859252e-02,9.083932853717026745e+00,3.165467625899280324e-01,3.729016786570743314e+00
2.264392898627831219e+00,-1.395101171458998923e-01,1.810436634717784918e-02,4.898828541001064990e-02,9.011990407673861725e+00,2.853717026378896904e-01,3.808153477218225280e+00
2.269349044786490133e+00,-1.448349307774227934e-01,2.768903088391906284e-02,5.644302449414270728e-02,8.908872901678657641e+00,2.877697841726618577e-01,3.913669064748201532e+00
2.274305190945149491e+00,-1.437699680511182188e-01,2.875399361022364098e-02,6.709265175718849561e-02,8.875299760191847298e+00,2.757793764988009655e-01,3.956834532374100544e+00
2.279261337103808405e+00,-1.437699680511182188e-01,2.662406815761448470e-02,7.454739084132055993e-02,8.815347721822542226e+00,2.134292565947242259e-01,3.961630695443644878e+00
2.284217483262467319e+00,-1.405750798722044670e-01,2.342917997870074681e-02,8.200212992545261037e-02,8.820143884892086561e+00,1.654676258992805737e-01,3.944844124700239707e+00
2.289173629421126233e+00,-1.352502662406815659e-01,2.342917997870074681e-02,8.945686900958466081e-02,8.824940047961630896e+00,1.270983213429256464e-01,3.968824940047961825e+00
2.294129775579785147e+00,-1.267305644302449408e-01,2.555910543130990309e-02,9.691160809371672513e-02,8.848920863309352569e+00,1.103117505995203779e-01,3.964028776978417046e+00
2.299085921738444060e+00,-1.150159744408945639e-01,2.555910543130990309e-02,1.033013844515442009e-01,8.827338129496402175e+00,1.127098321342925591e-01,3.937649880095923205e+00
2.304042067897102974e+00,-1.086261980830670881e-01,2.768903088391906284e-02,1.096911608093716767e-01,8.834532374100719565e+00,9.352517985611510931e-02,3.916067146282973699e+00
2.308998214055761888e+00,-1.054313099041533502e-01,2.875399361022364098e-02,1.171458998935037271e-01,8.899280575539568972e+00,9.352517985611510931e-02,3.836930455635491732e+00
2.313954360214421246e+00,-1.043663471778487756e-01,2.875399361022364098e-02,1.150159744408945639e-01,8.872901678657074243e+00,6.474820143884892076e-02,3.788968824940047941e+00
2.318910506373080160e+00,-1.096911608093716767e-01,3.194888178913737886e-02,1.107561235356762513e-01,8.925659472422061924e+00,6.954436450839328321e-02,3.872901678657074243e+00
2.323866652531739074e+00,-1.171458998935037271e-01,3.514376996805111675e-02,1.054313099041533502e-01,8.949640287769783598e+00,5.035971223021582649e-02,3.896882494004796360e+00
2.328822798690397988e+00,-1.203407880724174650e-01,3.940362087326943624e-02,1.022364217252396124e-01,8.954436450839327932e+00,6.235011990407673954e-02,3.928057553956834536e+00
2.333778944849056902e+00,-1.246006389776357776e-01,4.366347177848775574e-02,1.001064962726304630e-01,8.896882494004795916e+00,5.515587529976018893e-02,3.980815347721822661e+00
2.338735091007715816e+00,-1.331203407880724165e-01,4.366347177848775574e-02,9.265175718849839870e-02,8.841726618705035179e+00,5.755395683453237710e-02,4.047961630695443347e+00
2.343691237166374730e+00,-1.395101171458998923e-01,3.940362087326943624e-02,8.626198083067092293e-02,8.877697841726618577e+00,4.796163069544364527e-02,4.134292565947242259e+00
2.348647383325033644e+00,-1.427050053248136441e-01,2.981895633652822258e-02,8.519701810436634826e-02,8.844124700239808234e+00,6.474820143884892076e-02,4.213429256594723782e+00
2.353603529483693002e+00,-1.448349307774227934e-01,1.916932907348242732e-02,8.839190628328008614e-02,8.796163069544364888e+00,4.796163069544364527e-02,4.258992805755395850e+00
2.358559675642351916e+00,-1.480298189563365174e-01,1.171458998935037341e-02,9.052183173588924936e-02,8.786570743405276218e+00,7.673860911270982688e-02,4.309352517985611364e+00
2.363515821801010830e+00,-1.522896698615548439e-01,1.064962726304579440e-03,9.052183173588924936e-02,8.769784172661870159e+00,6.235011990407673954e-02,4.318944844124700033e+00
2.368471967959669744e+00,-1.576144834930777450e-01,-1.384451544195953142e-02,9.265175718849839870e-02,8.764988009592325824e+00,3.836930455635491344e-02,4.323741007194244368e+00
2.373428114118328658e+00,-1.640042598509052207e-01,-2.981895633652822258e-02,9.797657082002129980e-02,8.752997601918465875e+00,3.836930455635491344e-02,4.263788968824940184e+00
2.378384260276987572e+00,-1.693290734824281218e-01,-4.153354632587859252e-02,9.904153354632587447e-02,8.786570743405276218e+00,-1.438848920863309427e-02,4.160671462829736100e+00
2.383340406435646486e+00,-1.757188498402555976e-01,-4.898828541001064990e-02,9.797657082002129980e-02,8.851318944844123848e+00,-9.832134292565947176e-02,4.062350119904076351e+00
2.388296552594305400e+00,-1.810436634717784987e-01,-5.005324813631523151e-02,9.052183173588924936e-02,8.930455635491606259e+00,-1.294964028776978415e-01,3.942446043165467540e+00
2.393252698752964314e+00,-1.874334398296059745e-01,-4.898828541001064990e-02,8.200212992545261037e-02,8.923261390887290645e+00,-1.199040767386091166e-01,3.877697841726618577e+00
2.398208844911623672e+00,-1.938232161874334503e-01,-4.472843450479233041e-02,7.667731629392970927e-02,8.896882494004795916e+00,-1.438848920863309289e-01,3.798561151079136611e+00
2.403164991070282586e+00,-1.980830670926517489e-01,-3.620873269435569836e-02,6.922257720979765883e-02,8.901678657074340251e+00,-1.918465227817745811e-01,3.738609112709831983e+00
2.408121137228941500e+00,-2.002129925452609260e-01,-2.342917997870074681e-02,5.857294994675186356e-02,8.973621103117505271e+00,-1.990407673860911386e-01,3.714628297362110310e+00
2.413077283387600414e+00,-2.002129925452609260e-01,-8.519701810436635520e-03,4.685835995740149362e-02,8.973621103117505271e+00,-2.374100719424460382e-01,3.776978417266187105e+00
2.418033429546259327e+00,-1.927582534611288478e-01,4.259850905218317760e-03,3.620873269435569836e-02,8.932853717026379314e+00,-2.014388489208633060e-01,3.884892086330935079e+00
2.422989575704918241e+00,-1.884984025559105492e-01,1.171458998935037341e-02,3.514376996805111675e-02,8.829736211031175230e+00,-1.247002398081534791e-01,3.995203836930455665e+00
2.427945721863577155e+00,-1.831735889243876481e-01,1.171458998935037341e-02,2.875399361022364098e-02,8.774580335731414493e+00,-1.390887290167865664e-01,4.057553956834532016e+00
2.432901868022236069e+00,-1.799787007454738963e-01,7.454739084132055646e-03,2.555910543130990309e-02,8.779376498800958828e+00,-1.654676258992805737e-01,4.115107913669064921e+00
2.437858014180895427e+00,-1.778487752928647470e-01,-1.064962726304579440e-03,1.916932907348242732e-02,8.774580335731414493e+00,-1.990407673860911386e-01,4.127098321342925757e+00
2.442814160339554341e+00,-1.746538871139510229e-01,-9.584664536741213658e-03,1.384451544195953142e-02,8.762589928057554545e+00,-1.630695443645084064e-01,4.081534772182254578e+00
2.447770306498213255e+00,-1.746538871139510229e-01,-1.490947816826411129e-02,1.064962726304579353e-02,8.757793764988010210e+00,-1.654676258992805737e-01,4.023980815347721673e+00
2.452726452656872169e+00,-1.757188498402555976e-01,-1.703940362087327104e-02,5.324813631522896766e-03,8.810551558752997892e+00,-1.870503597122302186e-01,3.925659472422062368e+00
2.457682598815531083e+00,-1.757188498402555976e-01,-1.490947816826411129e-02,-2.129925452609158880e-03,8.870503597122302963e+00,-2.757793764988009655e-01,3.868105515587529908e+00
2.462638744974189997e+00,-1.778487752928647470e-01,-8.519701810436635520e-03,-1.490947816826411129e-02,8.901678657074340251e+00,-3.285371702637889801e-01,3.796163069544364443e+00
2.467594891132848911e+00,-1.810436634717784987e-01,3.194888178913737886e-03,-3.194888178913737886e-02,8.901678657074340251e+00,-3.213429256594724226e-01,3.774580335731414937e+00
2.472551037291507825e+00,-1.821086261980830734e-01,1.384451544195953142e-02,-5.005324813631523151e-02,8.870503597122302963e+00,-2.805755395683453002e-01,3.762589928057554101e+00
2.477507183450167183e+00,-1.789137380191693216e-01,2.129925452609158706e-02,-6.176783812566560145e-02,8.880095923261391633e+00,-2.949640287769784153e-01,3.810551558752997447e+00
2.482463329608826097e+00,-1.693290734824281218e-01,3.301384451544196047e-02,-7.774227902023429781e-02,8.892086330935251581e+00,-3.357314148681055377e-01,3.872901678657074243e+00
2.487419475767485011e+00,-1.608093716719914690e-01,4.259850905218317413e-02,-9.371671991480298725e-02,8.884892086330935967e+00,-3.117505995203836977e-01,3.968824940047961825e+00
2.492375621926143925e+00,-1.501597444089456945e-01,4.685835995740149362e-02,-1.086261980830670881e-01,8.846522781774579514e+00,-2.206235011990407557e-01,4.091127098321343247e+00
2.497331768084802839e+00,-1.405750798722044670e-01,3.940362087326943624e-02,-1.182108626198083018e-01,8.755395683453237154e+00,-8.872901678657074687e-02,4.218225419664269005e+00
2.502287914243461753e+00,-1.341853035143769912e-01,2.981895633652822258e-02,-1.192758253461128903e-01,8.745803357314148485e+00,-2.398081534772182090e-03,4.242206235011990678e+00
2.507244060402120667e+00,-1.246006389776357776e-01,2.342917997870074681e-02,-1.160809371671991524e-01,8.760191846522781489e+00,7.194244604316547137e-03,4.256594724220623682e+00
2.512200206560779581e+00,-1.139510117145899892e-01,1.703940362087327104e-02,-1.128860489882854146e-01,8.800959232613909222e+00,0.000000000000000000e+00,4.282973621103117523e+00
2.517156352719438939e+00,-1.086261980830670881e-01,6.389776357827475772e-03,-1.096911608093716767e-01,8.810551558752997892e+00,3.117505995203836977e-02,4.359712230215827766e+00
2.522112498878097853e+00,-1.043663471778487756e-01,-6.389776357827475772e-03,-1.064962726304579388e-01,8.784172661870503163e+00,8.633093525179856564e-02,4.290167865707434025e+00
2.527068645036756767e+00,-1.011714589989350377e-01,-2.236421725239616520e-02,-1.022364217252396124e-01,8.812949640287769171e+00,1.270983213429256464e-01,4.167865707434052602e+00
2.532024791195415681e+00,-1.001064962726304630e-01,-3.194888178913737886e-02,-9.371671991480298725e-02,8.822541966426857840e+00,1.247002398081534791e-01,4.031175059952038175e+00
2.536980937354074594e+00,-9.904153354632587447e-02,-3.088391906283280072e-02,-8.413205537806177359e-02,8.925659472422061924e+00,1.103117505995203779e-01,3.925659472422062368e+00
2.541937083512733508e+00,-9.691160809371672513e-02,-2.236421725239616520e-02,-7.880724174653887248e-02,8.930455635491606259e+00,1.151079136690647542e-01,3.872901678657074243e+00
2.546893229671392422e+00,-9.584664536741213658e-02,-1.490947816826411129e-02,-7.454739084132055993e-02,8.980815347721822661e+00,1.247002398081534791e-01,3.839328537170263900e+00
2.551849375830051336e+00,-9.584664536741213658e-02,-6.389776357827475772e-03,-6.709265175718849561e-02,8.985611510791366996e+00,1.342925659472422040e-01,3.791366906474820109e+00
2.556805521988710250e+00,-9.797657082002129980e-02,6.389776357827475772e-03,-5.750798722044728195e-02,8.995203836930455665e+00,1.462829736211031240e-01,3.707434052757793808e+00
2.561761668147369608e+00,-1.011714589989350377e-01,2.342917997870074681e-02,-4.898828541001064990e-02,9.009592326139088669e+00,1.822541966426858562e-01,3.712230215827338142e+00
2.566717814306028522e+00,-1.086261980830670881e-01,4.046858359957401785e-02,-4.259850905218317413e-02,9.009592326139088669e+00,1.726618705035971313e-01,3.741007194244604150e+00
2.571673960464687436e+00,-1.171458998935037271e-01,5.644302449414270728e-02,-3.514376996805111675e-02,9.019184652278177339e+00,2.110311750599520308e-01,3.853717026378896904e+00
2.576630106623346350e+00,-1.267305644302449408e-01,6.709265175718849561e-02,-2.555910543130990309e-02,9.007194244604317390e+00,2.206235011990407557e-01,3.947242206235011874e+00
2.581586252782005264e+00,-1.352502662406815659e-01,7.028753993610223350e-02,-1.810436634717784918e-02,8.940047961630694928e+00,2.805755395683453002e-01,4.028776978417266008e+00
2.586542398940664178e+00,-1.437699680511182188e-01,6.709265175718849561e-02,-7.454739084132055646e-03,8.856115107913668183e+00,3.021582733812949728e-01,4.052757793764987682e+00
2.591498545099323092e+00,-1.554845580404685956e-01,6.496272630457934627e-02,9.584664536741213658e-03,8.815347721822542226e+00,2.925659472422062479e-01,4.095923261390887582e+00
2.596454691257982006e+00,-1.693290734824281218e-01,6.176783812566560145e-02,2.129925452609158706e-02,8.856115107913668183e+00,2.350119904076738708e-01,4.151079136690647431e+00
2.601410837416641364e+00,-1.767838125665601723e-01,5.644302449414270728e-02,2.981895633652822258e-02,8.908872901678657641e+00,1.894484412470023860e-01,4.165467625899280435e+00
2.606366983575300278e+00,-1.831735889243876481e-01,4.792332268370606829e-02,3.727369542066027996e-02,8.887290167865707247e+00,1.726618705035971313e-01,4.160671462829736100e+00
2.611323129733959192e+00,-1.853035143769967974e-01,3.940362087326943624e-02,4.685835995740149362e-02,8.822541966426857840e+00,1.678657074340527688e-01,4.127098321342925757e+00
2.616279275892618106e+00,-1.842385516506922227e-01,3.940362087326943624e-02,5.963791267305644517e-02,8.796163069544364888e+00,1.366906474820143991e-01,4.052757793764987682e+00
2.621235422051277020e+00,-1.767838125665601723e-01,4.259850905218317413e-02,7.241746538871139671e-02,8.853717026378896904e+00,7.194244604316546443e-02,4.057553956834532016e+00
2.626191568209935934e+00,-1.735889243876464205e-01,5.005324813631523151e-02,8.200212992545261037e-02,8.923261390887290645e+00,-2.398081534772182263e-02,4.095923261390887582e+00
2.631147714368594848e+00,-1.661341853035143701e-01,5.431309904153354406e-02,8.306709265175718504e-02,8.911270983213428920e+00,-9.112709832134292809e-02,4.122302158273381423e+00
2.636103860527253762e+00,-1.576144834930777450e-01,5.537806176783812567e-02,8.200212992545261037e-02,8.889688249400480302e+00,-1.151079136690647542e-01,4.093525179856115415e+00
2.641060006685913120e+00,-1.437699680511182188e-01,5.644302449414270728e-02,8.306709265175718504e-02,8.928057553956834980e+00,-1.318944844124700366e-01,4.035971223021582510e+00
2.646016152844572034e+00,-1.309904153354632672e-01,6.602768903088392094e-02,8.200212992545261037e-02,8.964028776978416602e+00,-1.822541966426858562e-01,3.992805755395683498e+00
2.650972299003230948e+00,-1.203407880724174650e-01,7.987220447284344715e-02,7.561235356762513460e-02,8.937649880095923649e+00,-2.565947242206235157e-01,4.083932853717026745e+00
2.655928445161889861e+00,-1.054313099041533502e-01,8.732694355697551147e-02,6.709265175718849561e-02,8.952038369304556653e+00,-2.997601918465228055e-01,4.213429256594723782e+00
2.660884591320548775e+00,-9.052183173588924936e-02,8.626198083067092293e-02,5.644302449414270728e-02,8.908872901678657641e+00,-3.261390887290168128e-01,4.328537170263788703e+00
2.665840737479207689e+00,-7.454739084132055993e-02,8.093716719914803570e-02,4.792332268370606829e-02,8.820143884892086561e+00,-3.189448441247002553e-01,4.374100719424460770e+00
2.670796883637866603e+00,-5.750798722044728195e-02,7.241746538871139671e-02,3.727369542066027996e-02,8.784172661870503163e+00,-2.781774580335731328e-01,4.378896882494005105e+00
2.675753029796525517e+00,-4.685835995740149362e-02,6.176783812566560145e-02,2.981895633652822258e-02,8.781774580335731883e+00,-2.901678657074340251e-01,4.434052757793764954e+00
2.680709175955184875e+00,-3.940362087326943624e-02,4.792332268370606829e-02,2.023429179978700893e-02,8.788968824940047497e+00,-2.853717026378896904e-01,4.443645083932853623e+00
2.685665322113843789e+00,-3.940362087326943624e-02,3.088391906283280072e-02,7.454739084132055646e-03,8.808153477218224836e+00,-2.374100719424460382e-01,4.503597122302158695e+00
2.690621468272502703e+00,-3.940362087326943624e-02,1.171458998935037341e-02,1.064962726304579440e-03,8.812949640287769171e+00,-1.942446043165467762e-01,4.402877697841726778e+00
2.695577614431161617e+00,-4.472843450479233041e-02,2.129925452609158880e-03,-2.129925452609158880e-03,8.810551558752997892e+00,-1.175059952038369354e-01,4.273381294964028854e+00
2.700533760589820531e+00,-5.005324813631523151e-02,0.000000000000000000e+00,-5.324813631522896766e-03,8.810551558752997892e+00,-6.714628297362110199e-02,4.187050359712229941e+00
2.705489906748479445e+00,-5.644302449414270728e-02,1.064962726304579440e-03,-6.389776357827475772e-03,8.860911270983214294e+00,-5.995203836930455832e-02,4.136690647482014427e+00
2.710446052907138359e+00,-7.241746538871139671e-02,1.064962726304579440e-03,-7.454739084132055646e-03,8.846522781774579514e+00,-4.796163069544364527e-02,4.122302158273381423e+00
2.715402199065797273e+00,-9.371671991480298725e-02,4.259850905218317760e-03,-1.384451544195953142e-02,8.868105515587529908e+00,-2.158273381294964141e-02,4.064748201438848518e+00
2.720358345224456187e+00,-1.150159744408945639e-01,4.259850905218317760e-03,-1.810436634717784918e-02,8.894484412470024637e+00,3.357314148681055099e-02,4.069544364508392853e+00
2.725314491383115545e+00,-1.320553780617678419e-01,7.454739084132055646e-03,-1.810436634717784918e-02,8.894484412470024637e+00,7.194244604316546443e-02,3.980815347721822661e+00
2.730270637541774459e+00,-1.448349307774227934e-01,1.490947816826411129e-02,-1.277955271565495154e-02,8.918465227817746310e+00,5.995203836930455832e-02,3.937649880095923205e+00
2.735226783700433373e+00,-1.533546325878594185e-01,2.555910543130990309e-02,-6.389776357827475772e-03,8.916067146282973255e+00,4.316546762589928282e-02,3.956834532374100544e+00
2.740182929859092287e+00,-1.597444089456868943e-01,3.514376996805111675e-02,0.000000000000000000e+00,8.870503597122302963e+00,4.076738609112710160e-02,4.035971223021582510e+00
2.745139076017751201e+00,-1.597444089456868943e-01,3.940362087326943624e-02,7.454739084132055646e-03,8.848920863309352569e+00,5.035971223021582649e-02,4.119904076738609255e+00
2.750095222176410115e+00,-1.565495207667731703e-01,3.940362087326943624e-02,1.597444089456868943e-02,8.841726618705035179e+00,1.678657074340527550e-02,4.098321342925659749e+00
2.755051368335069029e+00,-1.522896698615548439e-01,4.046858359957401785e-02,2.555910543130990309e-02,8.841726618705035179e+00,7.194244604316547137e-03,4.052757793764987682e+00
2.760007514493727943e+00,-1.458998935037273681e-01,4.579339723109691201e-02,3.301384451544196047e-02,8.796163069544364888e+00,-9.592326139088728360e-03,4.038369304556354678e+00
2.764963660652387301e+00,-1.395101171458998923e-01,5.218317358892438779e-02,3.940362087326943624e-02,8.803357314148680501e+00,-1.918465227817745672e-02,4.031175059952038175e+00
2.769919806811046215e+00,-1.331203407880724165e-01,5.857294994675186356e-02,5.111821086261980618e-02,8.815347721822542226e+00,-5.275779376498800771e-02,4.009592326139088669e+00
2.774875952969705128e+00,-1.277955271565495154e-01,6.709265175718849561e-02,5.431309904153354406e-02,8.827338129496402175e+00,-7.673860911270982688e-02,3.952038369304556209e+00
2.779832099128364042e+00,-1.192758253461128903e-01,7.774227902023429781e-02,5.963791267305644517e-02,8.860911270983214294e+00,-9.352517985611510931e-02,3.908872901678657197e+00
2.784788245287022956e+00,-1.160809371671991524e-01,9.158679446219382403e-02,6.602768903088392094e-02,8.863309352517985573e+00,-1.438848920863309289e-01,3.832134292565947398e+00
2.789744391445681870e+00,-1.160809371671991524e-01,1.107561235356762513e-01,6.389776357827475772e-02,8.892086330935251581e+00,-1.894484412470023860e-01,3.817745803357313950e+00
2.794700537604340784e+00,-1.118210862619808260e-01,1.309904153354632672e-01,5.644302449414270728e-02,8.947242206235012318e+00,-2.517985611510791255e-01,3.800959232613908778e+00
2.799656683762999698e+00,-1.118210862619808260e-01,1.544195953141639932e-01,4.366347177848775574e-02,8.918465227817746310e+00,-2.446043165467625957e-01,3.949640287769784042e+00
2.804612829921659056e+00,-1.128860489882854146e-01,1.767838125665601723e-01,3.407880724174654208e-02,8.860911270983214294e+00,-2.110311750599520308e-01,4.167865707434052602e+00
2.809568976080317970e+00,-1.150159744408945639e-01,1.810436634717784987e-01,2.768903088391906284e-02,8.726618705035971146e+00,-1.846522781774580235e-01,4.386091127098321607e+00
2.814525122238976884e+00,-1.182108626198083018e-01,1.757188498402555976e-01,1.916932907348242732e-02,8.676258992805754744e+00,-1.702637889688249362e-01,4.549160671462829875e+00
2.819481268397635798e+00,-1.246006389776357776e-01,1.597444089456868943e-01,9.584664536741213658e-03,8.609112709832134058e+00,-1.247002398081534791e-01,4.649880095923261791e+00
2.824437414556294712e+00,-1.288604898828540901e-01,1.373801916932907430e-01,-1.064962726304579440e-03,8.558752997601917656e+00,-9.112709832134292809e-02,4.748201438848920652e+00
2.829393560714953626e+00,-1.341853035143769912e-01,1.064962726304579388e-01,-9.584664536741213658e-03,8.563549160671461991e+00,-7.194244604316546443e-02,4.793764988009592720e+00
2.834349706873612540e+00,-1.427050053248136441e-01,7.987220447284344715e-02,-1.490947816826411129e-02,8.613908872901678393e+00,-7.194244604316546443e-02,4.769784172661870159e+00
2.839305853032271454e+00,-1.458998935037273681e-01,5.857294994675186356e-02,-2.129925452609158706e-02,8.625899280575540118e+00,-7.673860911270982688e-02,4.688249400479616469e+00
2.844261999190930812e+00,-1.490947816826411199e-01,4.579339723109691201e-02,-2.662406815761448470e-02,8.618705035971222728e+00,-1.199040767386091132e-02,4.695443645083932971e+00
2.849218145349589726e+00,-1.490947816826411199e-01,2.981895633652822258e-02,-2.768903088391906284e-02,8.609112709832134058e+00,-1.918465227817745672e-02,4.673860911270983465e+00
2.854174291508248640e+00,-1.437699680511182188e-01,1.490947816826411129e-02,-2.236421725239616520e-02,8.664268585131894795e+00,-5.755395683453237710e-02,4.585131894484412385e+00
2.859130437666907554e+00,-1.416400425985090417e-01,6.389776357827475772e-03,-1.810436634717784918e-02,8.741007194244604150e+00,-1.438848920863309289e-01,4.436450839328537121e+00
2.864086583825566468e+00,-1.437699680511182188e-01,5.324813631522896766e-03,-2.236421725239616520e-02,8.788968824940047497e+00,-1.918465227817745811e-01,4.340527577937649539e+00
2.869042729984225382e+00,-1.448349307774227934e-01,1.171458998935037341e-02,-2.981895633652822258e-02,8.853717026378896904e+00,-2.014388489208633060e-01,4.256594724220623682e+00
2.873998876142884296e+00,-1.363152289669861683e-01,2.129925452609158706e-02,-3.301384451544196047e-02,8.868105515587529908e+00,-2.494004796163069582e-01,4.127098321342925757e+00
2.878955022301543210e+00,-1.277955271565495154e-01,3.514376996805111675e-02,-4.153354632587859252e-02,8.858513189448441238e+00,-3.045563549160671402e-01,4.064748201438848518e+00
2.883911168460202123e+00,-1.203407880724174650e-01,5.005324813631523151e-02,-5.644302449414270728e-02,8.887290167865707247e+00,-3.717026378896882699e-01,4.055155875299759849e+00
2.888867314618861482e+00,-1.107561235356762513e-01,6.496272630457934627e-02,-7.028753993610223350e-02,8.908872901678657641e+00,-3.980815347721822772e-01,4.057553956834532016e+00
2.893823460777520395e+00,-9.904153354632587447e-02,8.093716719914803570e-02,-8.839190628328008614e-02,8.870503597122302963e+00,-3.788968824940047719e-01,4.153477218225419598e+00
2.898779606936179309e+00,-9.478168264110756192e-02,9.158679446219382403e-02,-1.064962726304579388e-01,8.805755395683453557e+00,-2.805755395683453002e-01,4.282973621103117523e+00
2.903735753094838223e+00,-9.158679446219382403e-02,8.945686900958466081e-02,-1.203407880724174650e-01,8.786570743405276218e+00,-2.278177458033573133e-01,4.378896882494005105e+00
2.908691899253497137e+00,-9.371671991480298725e-02,8.945686900958466081e-02,-1.288604898828540901e-01,8.731414868105515481e+00,-1.558752997601918489e-01,4.453237410071942293e+00
2.913648045412156051e+00,-9.797657082002129980e-02,8.413205537806177359e-02,-1.373801916932907430e-01,8.712230215827338142e+00,-9.832134292565947176e-02,4.568345323741007213e+00
2.918604191570814965e+00,-1.043663471778487756e-01,7.348242811501597138e-02,-1.416400425985090417e-01,8.628297362110311397e+00,-4.796163069544364180e-03,4.669064748201439130e+00
2.923560337729473879e+00,-1.096911608093716767e-01,5.750798722044728195e-02,-1.427050053248136441e-01,8.592326139088729775e+00,7.194244604316546443e-02,4.695443645083932971e+00
2.928516483888133237e+00,-1.171458998935037271e-01,4.153354632587859252e-02,-1.416400425985090417e-01,8.589928057553956720e+00,5.995203836930455832e-02,4.671462829736211297e+00
2.933472630046792151e+00,-1.214057507987220397e-01,2.768903088391906284e-02,-1.341853035143769912e-01,8.613908872901678393e+00,1.678657074340527550e-02,4.618705035971222728e+00
2.938428776205451065e+00,-1.182108626198083018e-01,2.023429179978700893e-02,-1.246006389776357776e-01,8.659472422062350461e+00,2.877697841726618855e-02,4.563549160671462879e+00
2.943384922364109979e+00,-1.118210862619808260e-01,1.703940362087327104e-02,-1.150159744408945639e-01,8.678657074340527799e+00,1.438848920863309427e-02,4.465227817745803129e+00
2.948341068522768893e+00,-1.054313099041533502e-01,1.916932907348242732e-02,-1.075612353567625135e-01,8.676258992805754744e+00,1.918465227817745672e-02,4.338129496402877372e+00
2.953297214681427807e+00,-9.691160809371672513e-02,2.236421725239616520e-02,-9.371671991480298725e-02,8.726618705035971146e+00,1.199040767386091132e-02,4.268585131894484519e+00
2.958253360840086721e+00,-9.158679446219382403e-02,2.555910543130990309e-02,-8.519701810436634826e-02,8.791366906474820553e+00,-5.515587529976018893e-02,4.213429256594723782e+00
2.963209506998745635e+00,-8.945686900958466081e-02,3.940362087326943624e-02,-8.306709265175718504e-02,8.870503597122302963e+00,-8.633093525179856564e-02,4.208633093525179447e+00
2.968165653157404993e+00,-9.265175718849839870e-02,5.324813631522896940e-02,-8.626198083067092293e-02,8.836930455635490844e+00,-5.275779376498800771e-02,4.263788968824940184e+00
2.973121799316063907e+00,-9.904153354632587447e-02,5.963791267305644517e-02,-9.052183173588924936e-02,8.738609112709832871e+00,-1.199040767386091132e-02,4.335731414868105205e+00
2.978077945474722821e+00,-1.011714589989350377e-01,5.750798722044728195e-02,-8.626198083067092293e-02,8.693045563549160804e+00,-7.194244604316546443e-02,4.424460431654676285e+00
2.983034091633381735e+00,-1.001064962726304630e-01,5.111821086261980618e-02,-8.732694355697551147e-02,8.745803357314148485e+00,-1.726618705035971313e-01,4.436450839328537121e+00
2.987990237792040649e+00,-9.797657082002129980e-02,4.366347177848775574e-02,-9.371671991480298725e-02,8.762589928057554545e+00,-2.134292565947242259e-01,4.443645083932853623e+00
2.992946383950699563e+00,-9.158679446219382403e-02,3.514376996805111675e-02,-1.001064962726304630e-01,8.736211031175059816e+00,-1.846522781774580235e-01,4.407673860911271113e+00
2.997902530109358477e+00,-8.200212992545261037e-02,3.088391906283280072e-02,-1.022364217252396124e-01,8.717026378896882477e+00,-1.151079136690647542e-01,4.354916067146282543e+00
3.002858676268017390e+00,-6.922257720979765883e-02,3.407880724174654208e-02,-9.691160809371672513e-02,8.769784172661870159e+00,-1.414868105515587615e-01,4.294964028776978360e+00
3.007814822426676749e+00,-5.431309904153354406e-02,4.472843450479233041e-02,-9.052183173588924936e-02,8.815347721822542226e+00,-1.726618705035971313e-01,4.261390887290168017e+00
3.012770968585335662e+00,-4.259850905218317413e-02,5.963791267305644517e-02,-8.839190628328008614e-02,8.815347721822542226e+00,-1.750599520383692986e-01,4.362110311750599934e+00
3.017727114743994576e+00,-3.194888178913737886e-02,6.389776357827475772e-02,-8.519701810436634826e-02,8.721822541966426812e+00,-7.194244604316546443e-02,4.460431654676258795e+00
3.022683260902653490e+00,-1.810436634717784918e-02,5.963791267305644517e-02,-7.241746538871139671e-02,8.676258992805754744e+00,-2.158273381294964141e-02,4.450839328537170125e+00
3.027639407061312404e+00,-7.454739084132055646e-03,5.750798722044728195e-02,-5.750798722044728195e-02,8.721822541966426812e+00,-8.633093525179856564e-02,4.390887290167865942e+00
3.032595553219971318e+00,-2.129925452609158880e-03,6.283280085197018305e-02,-4.898828541001064990e-02,8.827338129496402175e+00,-8.633093525179856564e-02,4.350119904076738209e+00
3.037551699378630232e+00,-8.519701810436635520e-03,6.709265175718849561e-02,-4.366347177848775574e-02,8.817745803357313505e+00,-1.438848920863309427e-02,4.386091127098321607e+00
3.042507845537289146e+00,-1.703940362087327104e-02,6.496272630457934627e-02,-3.514376996805111675e-02,8.729016786570744202e+00,6.954436450839328321e-02,4.453237410071942293e+00
3.047463991695948060e+00,-2.981895633652822258e-02,6.070287539936101984e-02,-2.023429179978700893e-02,8.764988009592325824e+00,9.112709832134292809e-02,4.460431654676258795e+00
3.052420137854607418e+00,-4.472843450479233041e-02,6.070287539936101984e-02,-7.454739084132055646e-03,8.820143884892086561e+00,2.398081534772182090e-03,4.441247002398081456e+00
3.057376284013266332e+00,-6.389776357827475772e-02,6.070287539936101984e-02,-4.259850905218317760e-03,8.870503597122302963e+00,-1.031175059952038342e-01,4.429256594724220619e+00
3.062332430171925246e+00,-8.200212992545261037e-02,5.963791267305644517e-02,-7.454739084132055646e-03,8.839328537170263900e+00,-8.393285371702638442e-02,4.443645083932853623e+00
3.067288576330584160e+00,-9.797657082002129980e-02,5.963791267305644517e-02,-5.324813631522896766e-03,8.808153477218224836e+00,-5.755395683453237710e-02,4.443645083932853623e+00
3.072244722489243074e+00,-1.096911608093716767e-01,6.070287539936101984e-02,2.129925452609158880e-03,8.760191846522781489e+00,-7.434052757793764565e-02,4.453237410071942293e+00
3.077200868647901988e+00,-1.118210862619808260e-01,6.389776357827475772e-02,1.277955271565495154e-02,8.767386091127098879e+00,-1.031175059952038342e-01,4.450839328537170125e+00
3.082157014806560902e+00,-1.128860489882854146e-01,6.602768903088392094e-02,2.023429179978700893e-02,8.724220623501199867e+00,-1.966426858513189435e-01,4.522781774580336034e+00
3.087113160965219816e+00,-1.086261980830670881e-01,6.176783812566560145e-02,2.236421725239616520e-02,8.717026378896882477e+00,-2.901678657074340251e-01,4.613908872901678393e+00
3.092069307123879174e+00,-9.158679446219382403e-02,5.431309904153354406e-02,2.449414270500532495e-02,8.762589928057554545e+00,-3.908872901678657197e-01,4.568345323741007213e+00
3.097025453282538088e+00,-7.028753993610223350e-02,4.898828541001064990e-02,2.236421725239616520e-02,8.800959232613909222e+00,-4.652278177458033515e-01,4.474820143884891799e+00
3.101981599441197002e+00,-4.366347177848775574e-02,5.218317358892438779e-02,2.023429179978700893e-02,8.786570743405276218e+00,-4.676258992805755188e-01,4.431654676258992787e+00
3.106937745599855916e+00,-1.703940362087327104e-02,6.070287539936101984e-02,2.129925452609158706e-02,8.788968824940047497e+00,-4.820143884892086339e-01,4.402877697841726778e+00
3.111893891758514830e+00,7.454739084132055646e-03,7.028753993610223350e-02,2.129925452609158706e-02,8.808153477218224836e+00,-4.940047961630695261e-01,4.446043165467625791e+00
3.116850037917173744e+00,2.981895633652822258e-02,7.348242811501597138e-02,1.810436634717784918e-02,8.820143884892086561e+00,-5.155875299760191988e-01,4.496402877697841305e+00
3.121806184075832657e+00,4.685835995740149362e-02,7.561235356762513460e-02,9.584664536741213658e-03,8.812949640287769171e+00,-4.724220623501199090e-01,4.494004796163069138e+00
3.126762330234491571e+00,5.431309904153354406e-02,7.028753993610223350e-02,-2.129925452609158880e-03,8.786570743405276218e+00,-4.124700239808153368e-01,4.539568345323741205e+00
3.131718476393150929e+00,5.644302449414270728e-02,6.496272630457934627e-02,-9.584664536741213658e-03,8.752997601918465875e+00,-3.453237410071942626e-01,4.561151079136690711e+00
3.136674622551809843e+00,5.644302449414270728e-02,6.176783812566560145e-02,-1.064962726304579353e-02,8.717026378896882477e+00,-2.973621103117505826e-01,4.553956834532374209e+00
3.141630768710468757e+00,5.537806176783812567e-02,5.537806176783812567e-02,-1.171458998935037341e-02,8.755395683453237154e+00,-3.045563549160671402e-01,4.630695443645083564e+00
3.146586914869127671e+00,5.324813631522896940e-02,4.579339723109691201e-02,-1.703940362087327104e-02,8.755395683453237154e+00,-2.853717026378896904e-01,4.654676258992806126e+00
3.151543061027786585e+00,4.366347177848775574e-02,3.407880724174654208e-02,-2.449414270500532495e-02,8.738609112709832871e+00,-2.302158273381295084e-01,4.628297362110311397e+00
3.156499207186445499e+00,2.981895633652822258e-02,2.662406815761448470e-02,-2.875399361022364098e-02,8.690647482014387748e+00,-1.294964028776978415e-01,4.580335731414868050e+00
3.161455353345104413e+00,1.703940362087327104e-02,1.916932907348242732e-02,-2.555910543130990309e-02,8.671462829736210409e+00,-3.836930455635491344e-02,4.527577937649880369e+00
3.166411499503763327e+00,4.259850905218317760e-03,1.703940362087327104e-02,-1.384451544195953142e-02,8.738609112709832871e+00,-4.796163069544364527e-02,4.474820143884891799e+00
3.171367645662422685e+00,-8.519701810436635520e-03,1.810436634717784918e-02,-2.129925452609158880e-03,8.827338129496402175e+00,-8.872901678657074687e-02,4.400479616306954611e+00
3.176323791821081599e+00,-2.023429179978700893e-02,1.810436634717784918e-02,3.194888178913737886e-03,8.875299760191847298e+00,-9.352517985611510931e-02,4.290167865707434025e+00
3.181279937979740513e+00,-3.194888178913737886e-02,2.555910543130990309e-02,1.064962726304579353e-02,8.846522781774579514e+00,-6.954436450839328321e-02,4.165467625899280435e+00
3.186236084138399427e+00,-3.514376996805111675e-02,4.259850905218317413e-02,2.449414270500532495e-02,8.853717026378896904e+00,-1.318944844124700366e-01,4.117505995203837088e+00
3.191192230297058341e+00,-3.194888178913737886e-02,6.496272630457934627e-02,3.833865814696485463e-02,8.911270983213428920e+00,-2.134292565947242259e-01,4.158273381294963933e+00
3.196148376455717255e+00,-2.662406815761448470e-02,8.519701810436634826e-02,4.685835995740149362e-02,8.937649880095923649e+00,-2.541966426858512929e-01,4.239808153477218511e+00
3.201104522614376169e+00,-2.342917997870074681e-02,9.584664536741213658e-02,5.111821086261980618e-02,8.836930455635490844e+00,-2.374100719424460382e-01,4.395683453237410276e+00
3.206060668773035083e+00,-1.703940362087327104e-02,1.001064962726304630e-01,5.857294994675186356e-02,8.748201438848921541e+00,-1.990407673860911386e-01,4.544364508393285540e+00
3.211016814931693997e+00,-7.454739084132055646e-03,9.691160809371672513e-02,7.028753993610223350e-02,8.714628297362111198e+00,-2.182254196642685884e-01,4.601918465227817556e+00
3.215972961090353355e+00,2.129925452609158880e-03,9.052183173588924936e-02,7.667731629392970927e-02,8.707434052757793808e+00,-2.901678657074340251e-01,4.645083932853717457e+00
3.220929107249012269e+00,9.584664536741213658e-03,8.306709265175718504e-02,7.348242811501597138e-02,8.717026378896882477e+00,-2.517985611510791255e-01,4.752997601918464987e+00
3.225885253407671183e+00,1.064962726304579353e-02,6.602768903088392094e-02,7.135250266240682204e-02,8.654676258992806126e+00,-1.702637889688249362e-01,4.858513189448441238e+00
3.230841399566330097e+00,9.584664536741213658e-03,4.259850905218317413e-02,7.454739084132055993e-02,8.613908872901678393e+00,-1.630695443645084064e-01,4.772182254196642326e+00
3.235797545724989011e+00,7.454739084132055646e-03,1.810436634717784918e-02,7.987220447284344715e-02,8.678657074340527799e+00,-2.517985611510791255e-01,4.618705035971222728e+00
3.240753691883647924e+00,1.064962726304579353e-02,5.324813631522896766e-03,7.774227902023429781e-02,8.764988009592325824e+00,-3.453237410071942626e-01,4.539568345323741205e+00
3.245709838042306838e+00,1.277955271565495154e-02,0.000000000000000000e+00,6.815761448349308416e-02,8.798561151079136167e+00,-3.453237410071942626e-01,4.501199040767386528e+00
3.250665984200965752e+00,2.236421725239616520e-02,-7.454739084132055646e-03,5.963791267305644517e-02,8.803357314148680501e+00,-3.501199040767385973e-01,4.388489208633093774e+00
3.255622130359625110e+00,3.940362087326943624e-02,-1.277955271565495154e-02,6.070287539936101984e-02,8.863309352517985573e+00,-4.220623501199040617e-01,4.223021582733813339e+00
3.260578276518284024e+00,6.389776357827475772e-02,1.064962726304579440e-03,5.963791267305644517e-02,8.976019184652278327e+00,-4.916067146282973588e-01,4.131894484412470092e+00
3.265534422676942938e+00,8.839190628328008614e-02,2.129925452609158706e-02,5.537806176783812567e-02,8.988009592326138275e+00,-4.532374100719424592e-01,4.218225419664269005e+00
3.270490568835601852e+00,1.192758253461128903e-01,3.194888178913737886e-02,5.537806176783812567e-02,8.913669064748201976e+00,-4.028776978417266119e-01,4.328537170263788703e+00
3.275446714994260766e+00,1.554845580404685956e-01,3.514376996805111675e-02,6.389776357827475772e-02,8.870503597122302963e+00,-4.124700239808153368e-01,4.388489208633093774e+00
3.280402861152919680e+00,1.959531416400425996e-01,3.620873269435569836e-02,7.348242811501597138e-02,8.916067146282973255e+00,-4.796163069544364665e-01,4.424460431654676285e+00
3.285359007311578594e+00,2.353567625133120289e-01,3.407880724174654208e-02,7.454739084132055993e-02,8.961630695443645322e+00,-5.059952038369304184e-01,4.460431654676258795e+00
3.290315153470237508e+00,2.726304579339723366e-01,2.768903088391906284e-02,7.028753993610223350e-02,8.892086330935251581e+00,-3.932853717026378870e-01,4.534772182254196871e+00
3.295271299628896866e+00,3.003194888178913891e-01,1.703940362087327104e-02,7.667731629392970927e-02,8.836930455635490844e+00,-2.470023980815347631e-01,4.508393285371703030e+00
3.300227445787555780e+00,3.237486687965921428e-01,4.259850905218317760e-03,9.052183173588924936e-02,8.899280575539568972e+00,-1.750599520383692986e-01,4.417266187050359783e+00
3.305183591946214694e+00,3.375931842385516690e-01,3.194888178913737886e-03,1.075612353567625135e-01,8.916067146282973255e+00,-1.558752997601918489e-01,4.304556354916067029e+00
3.310139738104873608e+00,3.429179978700745424e-01,2.129925452609158880e-03,1.182108626198083018e-01,8.990407673860911331e+00,-1.846522781774580235e-01,4.275779376498801021e+00
3.315095884263532522e+00,3.450479233226836917e-01,0.000000000000000000e+00,1.267305644302449408e-01,9.004796163069544335e+00,-1.582733812949640162e-01,4.203836930455635112e+00
3.320052030422191436e+00,3.375931842385516690e-01,-1.064962726304579440e-03,1.341853035143769912e-01,8.995203836930455665e+00,-1.270983213429256464e-01,4.088729016786571080e+00
3.325008176580850350e+00,3.226837060702875126e-01,1.064962726304579440e-03,1.416400425985090417e-01,9.057553956834532016e+00,-1.223021582733812979e-01,3.947242206235011874e+00
3.329964322739509264e+00,3.099041533546325611e-01,1.384451544195953142e-02,1.427050053248136441e-01,9.122302158273381423e+00,-2.062350119904076684e-01,3.856115107913669071e+00
3.334920468898168178e+00,3.035143769968051131e-01,3.620873269435569836e-02,1.352502662406815659e-01,9.105515587529975363e+00,-2.685851318944844079e-01,3.971223021582733992e+00
3.339876615056827536e+00,3.099041533546325611e-01,5.111821086261980618e-02,1.331203407880724165e-01,9.088729016786571080e+00,-3.405275779376498724e-01,4.071942446043165909e+00
3.344832761215486450e+00,3.258785942492012921e-01,5.857294994675186356e-02,1.331203407880724165e-01,9.055155875299760737e+00,-3.717026378896882699e-01,4.124700239808153590e+00
3.349788907374145364e+00,3.482428115015974712e-01,6.709265175718849561e-02,1.309904153354632672e-01,8.966426858513189657e+00,-3.093525179856115304e-01,4.122302158273381423e+00
