t,gx,gy,gz,ax,ay,az
-1.415841093429367039e-03,-2.023429179978700754e-01,6.389776357827475772e-02,-2.960596379126730349e-01,8.959232613908872267e+00,7.314148681055155921e-01,4.342925659472421707e+00
3.542031343601054032e-03,-2.055378061767837994e-01,6.496272630457934627e-02,-2.843450479233226580e-01,8.949640287769783598e+00,8.513189448441247364e-01,3.966426858513189657e+00
8.499903780631474018e-03,-2.566560170394036056e-01,6.176783812566560145e-02,-2.747603833865814860e-01,9.309352517985612252e+00,7.961630695443645545e-01,4.755395683453237154e+00
1.345777621766189487e-02,-2.428115015974440793e-01,5.218317358892438779e-02,-2.736954206602769113e-01,8.863309352517985573e+00,1.098321342925659527e+00,4.407673860911271113e+00
1.841564865469231746e-02,-3.013844515441959637e-01,1.597444089456868943e-02,-2.438764643237486818e-01,8.318944844124700921e+00,1.031175059952038398e+00,4.872901678657074243e+00
2.337352109172273831e-02,-2.832800851970180833e-01,-1.916932907348242732e-02,-2.140575079872204523e-01,8.676258992805754744e+00,8.057553956834532238e-01,3.848920863309352569e+00
2.833139352875315917e-02,-3.162939297124600646e-01,8.519701810436635520e-03,-2.215122470713525027e-01,8.741007194244604150e+00,6.642685851318944623e-01,3.932853717026378870e+00
3.328926596578357655e-02,-3.088391906283279864e-01,4.579339723109691201e-02,-2.289669861554845531e-01,8.776978417266187549e+00,8.201438848920863389e-01,4.623501199040767062e+00
3.824713840281399740e-02,-2.843450479233226580e-01,2.342917997870074681e-02,-2.002129925452609260e-01,8.709832134292565087e+00,9.520383693045563200e-01,4.527577937649880369e+00
4.320501083984441826e-02,-2.768903088391906353e-01,-1.171458998935037341e-02,-1.544195953141639932e-01,8.748201438848921541e+00,7.961630695443645545e-01,4.714628297362110310e+00
4.816288327687483911e-02,-2.183173588924387509e-01,-3.194888178913737886e-03,-1.224707135250266282e-01,8.544364508393284652e+00,9.040767386091127511e-01,4.220623501199041172e+00
5.312075571390525996e-02,-2.076677316293929765e-01,2.129925452609158880e-03,-8.626198083067092293e-02,8.565947242206235046e+00,8.153477218225420042e-01,5.021582733812949506e+00
5.807862815093568082e-02,-1.437699680511182188e-01,-3.194888178913737886e-02,-5.963791267305644517e-02,8.889688249400480302e+00,6.498800959232613472e-01,4.256594724220623682e+00
6.303650058796610167e-02,-1.490947816826411199e-01,-4.685835995740149362e-02,-5.963791267305644517e-02,9.057553956834532016e+00,5.635491606714628787e-01,4.249400479616307180e+00
6.799437302499652946e-02,-1.160809371671991524e-01,-3.514376996805111675e-02,-6.602768903088392094e-02,8.865707434052758629e+00,9.328537170263788703e-01,4.079136690647482411e+00
7.295224546202695726e-02,-9.797657082002129980e-02,-2.875399361022364098e-02,-2.449414270500532495e-02,8.817745803357313505e+00,1.119904076738609033e+00,4.081534772182254578e+00
7.791011789905737117e-02,-7.135250266240682204e-02,-2.342917997870074681e-02,4.472843450479233041e-02,8.918465227817746310e+00,8.489208633093525691e-01,4.002398081534772167e+00
8.286799033608778509e-02,-4.153354632587859252e-02,-2.129925452609158880e-03,8.839190628328008614e-02,9.000000000000000000e+00,5.683453237410072134e-01,3.812949640287769615e+00
8.782586277311821288e-02,-3.620873269435569836e-02,8.519701810436635520e-03,9.691160809371672513e-02,8.836930455635490844e+00,4.460431654676259017e-01,4.364508393285372101e+00
9.278373521014864067e-02,1.171458998935037341e-02,4.259850905218317760e-03,1.043663471778487756e-01,8.892086330935251581e+00,4.556354916067146266e-01,3.882494004796162912e+00
9.774160764717905459e-02,-9.584664536741213658e-03,1.171458998935037341e-02,9.691160809371672513e-02,8.956834532374100988e+00,4.772182254196642437e-01,4.023980815347721673e+00
1.026994800842094685e-01,-2.555910543130990309e-02,1.703940362087327104e-02,9.158679446219382403e-02,8.884892086330935967e+00,4.916067146282973588e-01,4.254196642685851515e+00
1.076573525212398963e-01,-2.129925452609158706e-02,1.703940362087327104e-02,1.075612353567625135e-01,9.136690647482014427e+00,2.949640287769784153e-01,4.122302158273381423e+00
1.126152249582703241e-01,-2.555910543130990309e-02,2.662406815761448470e-02,1.033013844515442009e-01,9.052757793764987682e+00,1.486810551558752913e-01,4.095923261390887582e+00
1.175730973953007380e-01,-3.088391906283280072e-02,4.046858359957401785e-02,8.200212992545261037e-02,8.822541966426857840e+00,1.798561151079136611e-01,4.206235011990407280e+00
1.225309698323311519e-01,-2.875399361022364098e-02,3.940362087326943624e-02,7.667731629392970927e-02,8.721822541966426812e+00,2.134292565947242259e-01,4.287769784172661858e+00
1.274888422693615520e-01,-1.810436634717784918e-02,2.875399361022364098e-02,7.987220447284344715e-02,8.671462829736210409e+00,5.035971223021582649e-02,4.194244604316546443e+00
1.324467147063919936e-01,-1.597444089456868943e-02,2.768903088391906284e-02,7.454739084132055993e-02,8.769784172661870159e+00,-1.223021582733812979e-01,4.225419664268585507e+00
1.374045871434224075e-01,-1.703940362087327104e-02,2.023429179978700893e-02,5.963791267305644517e-02,8.935251798561150594e+00,-1.582733812949640162e-01,4.292565947242206192e+00
1.423624595804528215e-01,-2.129925452609158706e-02,2.129925452609158880e-03,4.366347177848775574e-02,8.971223021582733992e+00,-1.247002398081534791e-01,4.304556354916067029e+00
1.473203320174832631e-01,-2.449414270500532495e-02,-5.324813631522896766e-03,3.620873269435569836e-02,9.038369304556354678e+00,-1.870503597122302186e-01,4.170263788968824770e+00
1.522782044545136770e-01,-2.981895633652822258e-02,-7.454739084132055646e-03,2.875399361022364098e-02,9.189448441247002108e+00,-3.285371702637889801e-01,4.038369304556354678e+00
1.572360768915440909e-01,-2.875399361022364098e-02,-4.259850905218317760e-03,-1.064962726304579440e-03,9.278177458033573188e+00,-4.436450839328537343e-01,3.752997601918465431e+00
1.621939493285745049e-01,-3.514376996805111675e-02,2.555910543130990309e-02,-5.111821086261980618e-02,8.803357314148680501e+00,-2.925659472422062479e-01,4.026378896882493841e+00
1.671518217656049188e-01,-2.555910543130990309e-02,4.153354632587859252e-02,-6.922257720979765883e-02,8.729016786570744202e+00,-2.134292565947242259e-01,4.242206235011990678e+00
1.721096942026353604e-01,-1.703940362087327104e-02,3.407880724174654208e-02,-8.413205537806177359e-02,8.788968824940047497e+00,-2.613908872901678504e-01,4.129496402877697925e+00
1.770675666396657744e-01,-2.662406815761448470e-02,3.088391906283280072e-02,-1.150159744408945639e-01,8.786570743405276218e+00,-1.870503597122302186e-01,4.697841726618705138e+00
1.820254390766961883e-01,-1.277955271565495154e-02,-4.259850905218317760e-03,-1.352502662406815659e-01,8.791366906474820553e+00,8.872901678657074687e-02,4.515587529976019532e+00
1.869833115137266299e-01,-2.555910543130990309e-02,-3.514376996805111675e-02,-1.352502662406815659e-01,8.721822541966426812e+00,2.901678657074340251e-01,4.455635491606714460e+00
1.919411839507570439e-01,-9.584664536741213658e-03,-3.620873269435569836e-02,-1.150159744408945639e-01,8.851318944844123848e+00,3.405275779376498724e-01,4.177458033573141272e+00
1.968990563877874578e-01,-9.584664536741213658e-03,-2.662406815761448470e-02,-9.158679446219382403e-02,9.155875299760191766e+00,1.606714628297362113e-01,4.033573141486810343e+00
2.018569288248178717e-01,-4.259850905218317760e-03,-1.490947816826411129e-02,-9.584664536741213658e-02,9.244604316546762846e+00,4.556354916067146404e-02,3.954436450839328376e+00
2.068148012618482856e-01,2.129925452609158880e-03,7.454739084132055646e-03,-1.139510117145899892e-01,9.218225419664268117e+00,2.637889688249400733e-01,3.868105515587529908e+00
2.117726736988787273e-01,1.064962726304579440e-03,3.301384451544196047e-02,-1.128860489882854146e-01,9.146282973621103096e+00,4.844124700239808012e-01,4.127098321342925757e+00
2.167305461359091412e-01,1.916932907348242732e-02,5.431309904153354406e-02,-8.945686900958466081e-02,9.100719424460431028e+00,6.187050359712230607e-01,4.134292565947242259e+00
2.216884185729395551e-01,1.703940362087327104e-02,6.176783812566560145e-02,-6.709265175718849561e-02,9.227817745803356786e+00,5.443645083932853179e-01,4.546762589928057707e+00
2.266462910099699968e-01,2.449414270500532495e-02,4.259850905218317413e-02,-5.963791267305644517e-02,9.266187050359711463e+00,6.522781774580336256e-01,4.539568345323741205e+00
2.316041634470004107e-01,6.389776357827475772e-03,1.064962726304579353e-02,-4.153354632587859252e-02,9.165467625899280435e+00,8.441247002398081234e-01,4.405275779376498946e+00
2.365620358840308246e-01,8.519701810436635520e-03,3.194888178913737886e-03,-6.389776357827475772e-03,9.129496402877697037e+00,9.472422062350119853e-01,3.985611510791366996e+00
2.415199083210612385e-01,8.519701810436635520e-03,3.088391906283280072e-02,3.514376996805111675e-02,9.247002398081534125e+00,8.417266187050359560e-01,3.808153477218225280e+00
2.464777807580916524e-01,1.490947816826411129e-02,6.602768903088392094e-02,6.283280085197018305e-02,9.354916067146282543e+00,5.995203836930456109e-01,3.815347721822541782e+00
2.514356531951221219e-01,1.597444089456868943e-02,9.052183173588924936e-02,6.922257720979765883e-02,9.314148681055156587e+00,4.844124700239808012e-01,3.712230215827338142e+00
2.563935256321525080e-01,9.584664536741213658e-03,1.086261980830670881e-01,6.602768903088392094e-02,9.239808153477218511e+00,4.340527577937650094e-01,3.932853717026378870e+00
2.613513980691829497e-01,2.875399361022364098e-02,1.235356762513312029e-01,7.561235356762513460e-02,9.167865707434053490e+00,3.117505995203836977e-01,3.882494004796162912e+00
2.663092705062133914e-01,2.875399361022364098e-02,1.150159744408945639e-01,7.880724174653887248e-02,9.388489208633092886e+00,-6.235011990407673954e-02,3.609112709832134502e+00
2.712671429432437775e-01,2.236421725239616520e-02,1.448349307774227934e-01,3.727369542066027996e-02,9.251798561151078459e+00,-1.894484412470023860e-01,3.952038369304556209e+00
2.762250153802742192e-01,5.111821086261980618e-02,1.746538871139510229e-01,1.064962726304579353e-02,9.323741007194245256e+00,-1.199040767386091166e-01,4.577937649880095883e+00
2.811828878173046609e-01,8.093716719914803570e-02,1.405750798722044670e-01,8.519701810436635520e-03,9.064748201438849406e+00,-1.127098321342925591e-01,4.431654676258992787e+00
2.861407602543350470e-01,1.075612353567625135e-01,1.309904153354632672e-01,3.194888178913737886e-03,8.856115107913668183e+00,1.438848920863309427e-02,4.529976019184652536e+00
2.910986326913654887e-01,1.501597444089456945e-01,1.160809371671991524e-01,9.584664536741213658e-03,8.930455635491606259e+00,2.685851318944844079e-01,4.424460431654676285e+00
2.960565051283959304e-01,1.703940362087326965e-01,8.732694355697551147e-02,2.342917997870074681e-02,8.762589928057554545e+00,4.100719424460431695e-01,4.059952038369304184e+00
3.010143775654263165e-01,1.853035143769967974e-01,9.691160809371672513e-02,3.514376996805111675e-02,8.724220623501199867e+00,4.340527577937650094e-01,3.935251798561151038e+00
3.059722500024567582e-01,1.842385516506922227e-01,1.182108626198083018e-01,4.366347177848775574e-02,8.803357314148680501e+00,4.268585131894484519e-01,4.131894484412470092e+00
3.109301224394871443e-01,1.650692225772097954e-01,1.054313099041533502e-01,3.727369542066027996e-02,8.863309352517985573e+00,4.412470023980815115e-01,4.474820143884891799e+00
3.158879948765175860e-01,1.512247071352502692e-01,7.028753993610223350e-02,2.555910543130990309e-02,8.868105515587529908e+00,6.067146282973621130e-01,4.529976019184652536e+00
3.208458673135480277e-01,1.224707135250266282e-01,3.301384451544196047e-02,2.236421725239616520e-02,8.810551558752997892e+00,7.529976019184652092e-01,4.402877697841726778e+00
3.258037397505784138e-01,1.022364217252396124e-01,2.555910543130990309e-02,3.301384451544196047e-02,8.983213429256593940e+00,7.961630695443645545e-01,4.091127098321343247e+00
3.307616121876088555e-01,7.880724174653887248e-02,4.259850905218317413e-02,4.579339723109691201e-02,9.035971223021583398e+00,7.865707434052757741e-01,4.184652278177457774e+00
3.357194846246392417e-01,6.176783812566560145e-02,5.431309904153354406e-02,6.070287539936101984e-02,9.062350119904076351e+00,8.129496402877698369e-01,4.544364508393285540e+00
3.406773570616696833e-01,4.579339723109691201e-02,4.153354632587859252e-02,7.028753993610223350e-02,8.976019184652278327e+00,8.369304556354916214e-01,4.681055155875299967e+00
3.456352294987001250e-01,2.129925452609158706e-02,8.519701810436635520e-03,7.987220447284344715e-02,8.949640287769783598e+00,7.649880095923261569e-01,4.772182254196642326e+00
3.505931019357305112e-01,1.277955271565495154e-02,-1.916932907348242732e-02,9.265175718849839870e-02,8.928057553956834980e+00,7.553956834532373765e-01,4.582733812949640217e+00
3.555509743727609528e-01,5.324813631522896766e-03,-3.301384451544196047e-02,1.075612353567625135e-01,8.892086330935251581e+00,7.050359712230215292e-01,4.599520383693045389e+00
3.605088468097913945e-01,8.519701810436635520e-03,-3.620873269435569836e-02,1.235356762513312029e-01,9.206235011990408168e+00,5.227817745803357008e-01,4.690647482014388636e+00
3.654667192468217807e-01,8.519701810436635520e-03,-5.005324813631523151e-02,1.299254526091586925e-01,9.201438848920863833e+00,3.069544364508393075e-01,4.772182254196642326e+00
3.704245916838522223e-01,1.597444089456868943e-02,-6.602768903088392094e-02,1.192758253461128903e-01,9.158273381294964821e+00,2.278177458033573133e-01,4.844124700239808234e+00
3.753824641208826640e-01,2.129925452609158706e-02,-8.732694355697551147e-02,1.086261980830670881e-01,8.992805755395682610e+00,3.021582733812949728e-01,4.899280575539568083e+00
3.803403365579130502e-01,3.088391906283280072e-02,-1.246006389776357776e-01,1.064962726304579388e-01,8.822541966426857840e+00,2.685851318944844079e-01,4.906474820143884585e+00
3.852982089949434918e-01,4.898828541001064990e-02,-1.629392971246006461e-01,1.086261980830670881e-01,8.817745803357313505e+00,8.872901678657074687e-02,4.688249400479616469e+00
3.902560814319738780e-01,5.431309904153354406e-02,-1.970181043663471743e-01,1.001064962726304630e-01,8.978417266187049606e+00,-8.633093525179856564e-02,4.659472422062350461e+00
3.952139538690043197e-01,6.709265175718849561e-02,-2.289669861554845531e-01,7.667731629392970927e-02,9.141486810551558762e+00,-1.534772182254196538e-01,4.410071942446043280e+00
4.001718263060347613e-01,7.774227902023429781e-02,-2.513312034078807322e-01,5.537806176783812567e-02,9.254196642685851515e+00,-1.342925659472422040e-01,4.170263788968824770e+00
4.051296987430651475e-01,9.371671991480298725e-02,-2.513312034078807322e-01,4.259850905218317413e-02,9.287769784172661858e+00,-7.194244604316546443e-02,3.800959232613908778e+00
4.100875711800955892e-01,9.904153354632587447e-02,-2.247071352502662545e-01,3.088391906283280072e-02,9.376498800959232938e+00,-3.357314148681055099e-02,3.594724220623501054e+00
4.150454436171259753e-01,9.584664536741213658e-02,-1.884984025559105492e-01,1.064962726304579353e-02,9.551558752997602042e+00,1.918465227817745672e-02,3.628297362110311841e+00
4.200033160541564170e-01,8.093716719914803570e-02,-1.586794462193823196e-01,-1.597444089456868943e-02,9.520383693045562978e+00,1.055155875299760154e-01,3.764988009592326268e+00
4.249611884911868587e-01,5.963791267305644517e-02,-1.416400425985090417e-01,-3.940362087326943624e-02,9.417266187050358894e+00,2.278177458033573133e-01,4.016786570743405171e+00
4.299190609282172448e-01,3.833865814696485463e-02,-1.395101171458998923e-01,-6.070287539936101984e-02,9.203836930455635112e+00,4.652278177458033515e-01,4.184652278177457774e+00
4.348769333652476865e-01,9.584664536741213658e-03,-1.576144834930777450e-01,-7.028753993610223350e-02,9.014388489208633004e+00,6.163069544364508934e-01,4.443645083932853623e+00
4.398348058022781282e-01,-9.584664536741213658e-03,-1.874334398296059745e-01,-6.070287539936101984e-02,9.028776978417266008e+00,5.923261390887289979e-01,4.513189448441247364e+00
4.447926782393085143e-01,-2.342917997870074681e-02,-2.204472843450479280e-01,-4.685835995740149362e-02,9.076738609112709355e+00,4.484412470023980690e-01,4.362110311750599934e+00
4.497505506763389560e-01,-2.981895633652822258e-02,-2.342917997870074542e-01,-3.727369542066027996e-02,9.470023980815348352e+00,2.470023980815347631e-01,4.326139088729016535e+00
4.547084231133693977e-01,-3.407880724174654208e-02,-2.438764643237486818e-01,-3.833865814696485463e-02,9.390887290167865942e+00,1.294964028776978415e-01,3.973621103117506159e+00
4.596662955503997838e-01,-4.046858359957401785e-02,-2.279020234291799785e-01,-5.111821086261980618e-02,9.287769784172661858e+00,1.870503597122302186e-01,4.609112709832134058e+00
4.646241679874302255e-01,2.129925452609158880e-03,-2.662406815761448331e-01,-3.194888178913737886e-02,8.911270983213428920e+00,1.894484412470023860e-01,3.937649880095923205e+00
4.695820404244606117e-01,-3.301384451544196047e-02,-2.790202342917997846e-01,-2.555910543130990309e-02,9.225419664268585507e+00,-1.151079136690647542e-01,4.117505995203837088e+00
4.745399128614910533e-01,-2.768903088391906284e-02,-2.928647497337593109e-01,-4.898828541001064990e-02,9.333333333333333925e+00,-2.589928057553956831e-01,3.870503597122302075e+00
4.794977852985214950e-01,-2.768903088391906284e-02,-2.960596379126730349e-01,-7.774227902023429781e-02,9.587529976019185440e+00,-2.973621103117505826e-01,3.549160671462829875e+00
4.844556577355518812e-01,-2.981895633652822258e-02,-2.800851970181043593e-01,-9.904153354632587447e-02,9.628297362110311397e+00,-3.141486810551558650e-01,3.333333333333333481e+00
4.894135301725823228e-01,-1.277955271565495154e-02,-2.279020234291799785e-01,-1.214057507987220397e-01,9.733812949640288537e+00,-2.254196642685851182e-01,2.889688249400479414e+00
4.943714026096127090e-01,-2.129925452609158706e-02,-1.661341853035143701e-01,-1.384451544195953177e-01,9.724220623501199867e+00,-1.606714628297362113e-01,3.378896882494004661e+00
4.993292750466432062e-01,1.064962726304579440e-03,-1.224707135250266282e-01,-1.458998935037273681e-01,9.664268585131894795e+00,5.995203836930455832e-02,3.254196642685851515e+00
5.042871474836735368e-01,-1.277955271565495154e-02,-9.904153354632587447e-02,-1.522896698615548439e-01,9.517985611510791699e+00,1.582733812949640162e-01,3.630695443645084008e+00
5.092450199207039230e-01,5.324813631522896766e-03,-7.987220447284344715e-02,-1.469648562300319428e-01,9.455635491606715348e+00,3.141486810551558650e-01,3.503597122302158251e+00
5.142028923577343091e-01,-1.064962726304579440e-03,-5.857294994675186356e-02,-1.395101171458998923e-01,9.407673860911270225e+00,4.148681055155875042e-01,3.693045563549160804e+00
5.191607647947648063e-01,1.064962726304579440e-03,-4.898828541001064990e-02,-1.267305644302449408e-01,9.314148681055156587e+00,4.556354916067146266e-01,3.901678657074340695e+00
5.241186372317951925e-01,9.584664536741213658e-03,-5.005324813631523151e-02,-1.086261980830670881e-01,9.316546762589927866e+00,4.148681055155875042e-01,3.887290167865707247e+00
5.290765096688255786e-01,5.324813631522896766e-03,-6.070287539936101984e-02,-9.478168264110756192e-02,9.362110311750599934e+00,2.997601918465228055e-01,4.083932853717026745e+00
5.340343821058560758e-01,1.916932907348242732e-02,-7.028753993610223350e-02,-9.691160809371672513e-02,9.357314148681055599e+00,2.781774580335731328e-01,3.820143884892086117e+00
5.389922545428864620e-01,9.584664536741213658e-03,-7.028753993610223350e-02,-9.584664536741213658e-02,9.359712230215826878e+00,1.534772182254196538e-01,3.930455635491606703e+00
5.439501269799168481e-01,3.088391906283280072e-02,-6.389776357827475772e-02,-1.001064962726304630e-01,9.386091127098321607e+00,2.877697841726618855e-02,3.702637889688249473e+00
5.489079994169473453e-01,3.940362087326943624e-02,-5.857294994675186356e-02,-1.043663471778487756e-01,9.477218225419663966e+00,-1.007194244604316530e-01,3.767386091127098435e+00
5.538658718539777315e-01,6.602768903088392094e-02,-4.792332268370606829e-02,-1.203407880724174650e-01,9.549160671462828986e+00,-2.877697841726618855e-02,3.729016786570743314e+00
5.588237442910081176e-01,8.200212992545261037e-02,-3.514376996805111675e-02,-1.363152289669861683e-01,9.359712230215826878e+00,3.045563549160671402e-01,3.832134292565947398e+00
5.637816167280386148e-01,9.265175718849839870e-02,-3.088391906283280072e-02,-1.267305644302449408e-01,9.223021582733812451e+00,6.115107913669064477e-01,4.040767386091126845e+00
5.687394891650690010e-01,1.075612353567625135e-01,-3.620873269435569836e-02,-1.043663471778487756e-01,9.218225419664268117e+00,7.482014388489208745e-01,3.923261390887290201e+00
5.736973616020993871e-01,9.265175718849839870e-02,-3.940362087326943624e-02,-8.519701810436634826e-02,9.273381294964028854e+00,6.930455635491606925e-01,4.093525179856115415e+00
5.786552340391298843e-01,8.519701810436634826e-02,-4.579339723109691201e-02,-7.987220447284344715e-02,9.247002398081534125e+00,7.673860911270983243e-01,4.081534772182254578e+00
5.836131064761602705e-01,5.644302449414270728e-02,-6.602768903088392094e-02,-7.561235356762513460e-02,9.167865707434053490e+00,8.920863309352518034e-01,4.294964028776978360e+00
5.885709789131906566e-01,4.259850905218317413e-02,-9.052183173588924936e-02,-5.963791267305644517e-02,9.139088729016785706e+00,9.400479616306954833e-01,4.163069544364508268e+00
5.935288513502211538e-01,2.023429179978700893e-02,-1.075612353567625135e-01,-3.833865814696485463e-02,9.086330935251798024e+00,9.688249400479616025e-01,4.035971223021582510e+00
5.984867237872515400e-01,-3.194888178913737886e-03,-1.150159744408945639e-01,-1.490947816826411129e-02,9.021582733812950394e+00,1.035971223021582732e+00,3.997601918465227833e+00
6.034445962242819261e-01,-2.342917997870074681e-02,-1.214057507987220397e-01,5.324813631522896766e-03,9.117505995203837088e+00,9.688249400479616025e-01,3.858513189448441238e+00
6.084024686613123123e-01,-4.046858359957401785e-02,-1.203407880724174650e-01,2.768903088391906284e-02,9.513189448441247364e+00,7.290167865707434247e-01,3.841726618705036067e+00
6.133603410983428095e-01,-4.472843450479233041e-02,-1.214057507987220397e-01,4.153354632587859252e-02,9.529976019184651648e+00,5.827338129496403285e-01,3.371702637889688159e+00
6.183182135353731956e-01,-7.774227902023429781e-02,-9.797657082002129980e-02,3.407880724174654208e-02,9.342925659472422595e+00,6.067146282973621130e-01,3.529976019184652092e+00
6.232760859724035818e-01,-8.093716719914803570e-02,-6.389776357827475772e-02,4.046858359957401785e-02,9.280575539568344468e+00,6.930455635491606925e-01,3.752997601918465431e+00
6.282339584094340790e-01,-8.945686900958466081e-02,-6.602768903088392094e-02,6.602768903088392094e-02,9.247002398081534125e+00,5.731414868105515481e-01,3.793764988009592276e+00
6.331918308464644651e-01,-9.158679446219382403e-02,-6.922257720979765883e-02,7.880724174653887248e-02,9.254196642685851515e+00,3.357314148681055377e-01,3.676258992805755188e+00
6.381497032834948513e-01,-9.265175718849839870e-02,-6.176783812566560145e-02,7.348242811501597138e-02,9.323741007194245256e+00,2.589928057553956831e-01,3.541966426858513373e+00
6.431075757205253485e-01,-9.478168264110756192e-02,-5.111821086261980618e-02,6.709265175718849561e-02,9.256594724220622794e+00,3.597122302158273222e-01,3.752997601918465431e+00
6.480654481575557346e-01,-8.200212992545261037e-02,-4.685835995740149362e-02,7.667731629392970927e-02,9.239808153477218511e+00,4.124700239808153368e-01,3.637889688249400511e+00
6.530233205945861208e-01,-7.880724174653887248e-02,-3.620873269435569836e-02,9.158679446219382403e-02,9.354916067146282543e+00,2.613908872901678504e-01,3.741007194244604150e+00
6.579811930316166180e-01,-6.815761448349308416e-02,-1.916932907348242732e-02,9.158679446219382403e-02,9.417266187050358894e+00,2.206235011990407557e-01,3.659472422062350017e+00
6.629390654686470041e-01,-7.348242811501597138e-02,-3.194888178913737886e-03,8.306709265175718504e-02,9.273381294964028854e+00,3.693045563549160470e-01,3.911270983213429364e+00
6.678969379056773903e-01,-7.135250266240682204e-02,-3.194888178913737886e-03,8.626198083067092293e-02,9.098321342925659749e+00,5.395683453237409832e-01,4.009592326139088669e+00
6.728548103427077764e-01,-7.561235356762513460e-02,-1.171458998935037341e-02,1.001064962726304630e-01,9.021582733812950394e+00,5.083932853717025857e-01,4.033573141486810343e+00
6.778126827797382736e-01,-7.561235356762513460e-02,-1.597444089456868943e-02,1.128860489882854146e-01,9.115107913669064033e+00,3.693045563549160470e-01,4.028776978417266008e+00
6.827705552167686598e-01,-8.200212992545261037e-02,-2.449414270500532495e-02,1.064962726304579388e-01,9.141486810551558762e+00,3.285371702637889801e-01,4.031175059952038175e+00
6.877284276537990459e-01,-9.691160809371672513e-02,-4.259850905218317413e-02,1.001064962726304630e-01,9.050359712230216402e+00,3.693045563549160470e-01,4.201438848920862945e+00
6.926863000908295431e-01,-9.797657082002129980e-02,-6.283280085197018305e-02,1.011714589989350377e-01,9.083932853717026745e+00,3.357314148681055377e-01,3.997601918465227833e+00
6.976441725278599293e-01,-1.107561235356762513e-01,-7.028753993610223350e-02,1.043663471778487756e-01,9.131894484412470092e+00,1.534772182254196538e-01,3.932853717026378870e+00
7.026020449648903154e-01,-1.096911608093716767e-01,-6.815761448349308416e-02,9.797657082002129980e-02,9.263788968824940184e+00,-3.357314148681055099e-02,3.764988009592326268e+00
7.075599174019208126e-01,-1.171458998935037271e-01,-5.750798722044728195e-02,7.667731629392970927e-02,9.321342925659472201e+00,-1.606714628297362113e-01,3.800959232613908778e+00
7.125177898389511988e-01,-1.128860489882854146e-01,-5.324813631522896940e-02,4.898828541001064990e-02,9.390887290167865942e+00,-2.326139088729016757e-01,3.762589928057554101e+00
7.174756622759815849e-01,-1.054313099041533502e-01,-3.833865814696485463e-02,2.129925452609158706e-02,9.386091127098321607e+00,-2.541966426858512929e-01,3.724220623501198979e+00
7.224335347130120821e-01,-9.478168264110756192e-02,-1.703940362087327104e-02,-5.324813631522896766e-03,9.405275779376498946e+00,-2.422062350119904006e-01,3.836930455635491732e+00
7.273914071500424683e-01,-7.774227902023429781e-02,3.194888178913737886e-03,-3.301384451544196047e-02,9.287769784172661858e+00,-1.678657074340527550e-02,4.004796163069544335e+00
7.323492795870728544e-01,-7.028753993610223350e-02,7.454739084132055646e-03,-5.431309904153354406e-02,9.074340527577938076e+00,2.302158273381295084e-01,4.381294964028777272e+00
7.373071520241033516e-01,-5.857294994675186356e-02,-1.490947816826411129e-02,-5.111821086261980618e-02,9.035971223021583398e+00,3.405275779376498724e-01,4.249400479616307180e+00
7.422650244611337378e-01,-7.241746538871139671e-02,-3.833865814696485463e-02,-5.644302449414270728e-02,9.139088729016785706e+00,2.446043165467625957e-01,3.884892086330935079e+00
7.472228968981641239e-01,-7.561235356762513460e-02,-1.064962726304579353e-02,-6.709265175718849561e-02,8.973621103117505271e+00,2.949640287769784153e-01,4.381294964028777272e+00
7.521807693351946211e-01,-5.963791267305644517e-02,-1.277955271565495154e-02,-6.922257720979765883e-02,8.776978417266187549e+00,4.244604316546762846e-01,4.678657074340527799e+00
7.571386417722250073e-01,-6.070287539936101984e-02,-6.176783812566560145e-02,-6.070287539936101984e-02,8.613908872901678393e+00,4.988009592326139163e-01,5.208633093525179447e+00
7.620965142092553934e-01,-4.046858359957401785e-02,-1.384451544195953177e-01,-3.727369542066027996e-02,8.685851318944843413e+00,5.443645083932853179e-01,4.714628297362110310e+00
7.670543866462857796e-01,-4.685835995740149362e-02,-1.810436634717784987e-01,-2.236421725239616520e-02,8.697841726618705138e+00,5.035971223021582510e-01,4.474820143884891799e+00
7.720122590833162768e-01,-3.833865814696485463e-02,-1.863684771033013721e-01,-1.703940362087327104e-02,8.707434052757793808e+00,4.940047961630695261e-01,4.398081534772182444e+00
7.769701315203466629e-01,-4.259850905218317413e-02,-1.991480298189563236e-01,-7.454739084132055646e-03,8.774580335731414493e+00,4.676258992805755188e-01,4.618705035971222728e+00
7.819280039573770491e-01,-4.366347177848775574e-02,-2.428115015974440793e-01,2.129925452609158880e-03,8.894484412470024637e+00,3.165467625899280324e-01,4.517985611510791699e+00
7.868858763944075463e-01,-5.005324813631523151e-02,-2.758253461128860606e-01,-2.129925452609158880e-03,8.937649880095923649e+00,2.086330935251798635e-01,4.064748201438848518e+00
7.918437488314379324e-01,-5.963791267305644517e-02,-2.790202342917997846e-01,-1.277955271565495154e-02,8.930455635491606259e+00,2.446043165467625957e-01,3.786570743405275774e+00
7.968016212684683186e-01,-5.537806176783812567e-02,-2.619808306709265344e-01,-1.810436634717784918e-02,8.966426858513189657e+00,2.925659472422062479e-01,3.556354916067146377e+00
8.017594937054988158e-01,-6.176783812566560145e-02,-2.353567625133120289e-01,-1.384451544195953142e-02,9.000000000000000000e+00,1.990407673860911386e-01,3.717026378896882477e+00
8.067173661425292019e-01,-6.070287539936101984e-02,-2.183173588924387509e-01,-2.023429179978700893e-02,9.007194244604317390e+00,9.112709832134292809e-02,3.695443645083932971e+00
8.116752385795595881e-01,-7.667731629392970927e-02,-2.087326943556975511e-01,-4.153354632587859252e-02,8.932853717026379314e+00,1.175059952038369354e-01,3.841726618705036067e+00
8.166331110165900853e-01,-8.306709265175718504e-02,-2.108626198083067005e-01,-5.963791267305644517e-02,8.724220623501199867e+00,2.494004796163069582e-01,3.848920863309352569e+00
8.215909834536204714e-01,-8.945686900958466081e-02,-2.183173588924387509e-01,-6.176783812566560145e-02,8.527577937649880369e+00,3.836930455635491621e-01,3.764988009592326268e+00
8.265488558906508576e-01,-9.371671991480298725e-02,-2.161874334398296016e-01,-5.431309904153354406e-02,8.510791366906474309e+00,3.309352517985611475e-01,3.769784172661870603e+00
8.315067283276812438e-01,-8.945686900958466081e-02,-2.076677316293929765e-01,-5.111821086261980618e-02,8.537170263788969038e+00,2.230215827338129508e-01,3.832134292565947398e+00
8.364646007647117409e-01,-9.478168264110756192e-02,-2.097976570820021258e-01,-5.644302449414270728e-02,8.527577937649880369e+00,2.062350119904076684e-01,4.031175059952038175e+00
8.414224732017421271e-01,-9.265175718849839870e-02,-2.300319488817891278e-01,-5.644302449414270728e-02,8.484412470023981356e+00,2.446043165467625957e-01,3.872901678657074243e+00
8.463803456387725133e-01,-9.371671991480298725e-02,-2.396166134185303553e-01,-5.431309904153354406e-02,8.458033573141486627e+00,2.470023980815347631e-01,3.647482014388489180e+00
8.513382180758030104e-01,-8.732694355697551147e-02,-2.247071352502662545e-01,-5.111821086261980618e-02,8.422062350119903229e+00,2.182254196642685884e-01,3.460431654676258795e+00
8.562960905128333966e-01,-8.306709265175718504e-02,-1.948881789137380249e-01,-4.685835995740149362e-02,8.474820143884892687e+00,2.110311750599520308e-01,3.577937649880095883e+00
8.612539629498637828e-01,-7.561235356762513460e-02,-1.778487752928647470e-01,-3.833865814696485463e-02,8.537170263788969038e+00,2.062350119904076684e-01,3.676258992805755188e+00
8.662118353868942799e-01,-6.922257720979765883e-02,-1.682641107561235472e-01,-2.768903088391906284e-02,8.563549160671461991e+00,2.326139088729016757e-01,3.510791366906474753e+00
8.711697078239246661e-01,-7.454739084132055993e-02,-1.480298189563365174e-01,-2.449414270500532495e-02,8.505995203836929974e+00,3.285371702637889801e-01,3.539568345323741205e+00
8.761275802609550523e-01,-7.454739084132055993e-02,-1.192758253461128903e-01,-1.916932907348242732e-02,8.362110311750599934e+00,4.388489208633093441e-01,3.693045563549160804e+00
8.810854526979855494e-01,-7.667731629392970927e-02,-1.001064962726304630e-01,0.000000000000000000e+00,8.304556354916067917e+00,4.316546762589927866e-01,3.990407673860911331e+00
8.860433251350159356e-01,-7.241746538871139671e-02,-1.033013844515442009e-01,2.023429179978700893e-02,8.294964028776979248e+00,3.405275779376498724e-01,4.093525179856115415e+00
8.910011975720463218e-01,-7.880724174653887248e-02,-1.192758253461128903e-01,2.662406815761448470e-02,8.258992805755395850e+00,2.973621103117505826e-01,4.201438848920862945e+00
8.959590700090768189e-01,-8.306709265175718504e-02,-1.427050053248136441e-01,2.768903088391906284e-02,8.127098321342925757e+00,3.357314148681055377e-01,4.189448441247002108e+00
9.009169424461072051e-01,-8.839190628328008614e-02,-1.671991480298189447e-01,3.407880724174654208e-02,8.129496402877697037e+00,2.925659472422062479e-01,4.064748201438848518e+00
9.058748148831375913e-01,-9.265175718849839870e-02,-1.789137380191693216e-01,4.046858359957401785e-02,8.182254196642686495e+00,1.558752997601918489e-01,3.913669064748201532e+00
9.108326873201680884e-01,-1.022364217252396124e-01,-1.884984025559105492e-01,3.194888178913737886e-02,8.275779376498800133e+00,2.398081534772182090e-03,3.822541966426858728e+00
9.157905597571984746e-01,-1.150159744408945639e-01,-1.970181043663471743e-01,9.584664536741213658e-03,8.371702637889688603e+00,-1.223021582733812979e-01,3.834532374100719565e+00
9.207484321942288608e-01,-1.203407880724174650e-01,-2.055378061767837994e-01,-1.597444089456868943e-02,8.306954436450839196e+00,-1.486810551558752913e-01,3.705035971223021640e+00
9.257063046312592469e-01,-1.192758253461128903e-01,-2.151224707135250269e-01,-3.301384451544196047e-02,8.275779376498800133e+00,-1.894484412470023860e-01,3.649880095923261347e+00
9.306641770682897441e-01,-1.033013844515442009e-01,-2.151224707135250269e-01,-5.005324813631523151e-02,8.278177458033573188e+00,-2.470023980815347631e-01,3.458033573141486627e+00
9.356220495053201303e-01,-9.265175718849839870e-02,-2.108626198083067005e-01,-6.389776357827475772e-02,8.321342925659472201e+00,-2.709832134292565753e-01,3.426858513189448452e+00
9.405799219423505164e-01,-7.880724174653887248e-02,-2.097976570820021258e-01,-8.306709265175718504e-02,8.402877697841725890e+00,-2.805755395683453002e-01,3.330935251798561314e+00
9.455377943793810136e-01,-7.028753993610223350e-02,-2.044728434504792247e-01,-1.054313099041533502e-01,8.558752997601917656e+00,-2.278177458033573133e-01,3.235011990407673732e+00
9.504956668164113998e-01,-6.283280085197018305e-02,-1.853035143769967974e-01,-1.267305644302449408e-01,8.618705035971222728e+00,-1.462829736211031240e-01,3.146282973621103096e+00
9.554535392534417859e-01,-5.218317358892438779e-02,-1.608093716719914690e-01,-1.395101171458998923e-01,8.558752997601917656e+00,1.438848920863309427e-02,3.158273381294963933e+00
9.604114116904722831e-01,-3.940362087326943624e-02,-1.384451544195953177e-01,-1.405750798722044670e-01,8.520383693045562978e+00,1.151079136690647542e-01,3.242206235011990234e+00
9.653692841275026693e-01,-2.023429179978700893e-02,-1.256656017039403661e-01,-1.352502662406815659e-01,8.503597122302158695e+00,1.678657074340527688e-01,3.330935251798561314e+00
9.703271565645330554e-01,-1.064962726304579353e-02,-1.235356762513312029e-01,-1.256656017039403661e-01,8.486810551558752636e+00,2.781774580335731328e-01,3.436450839328537121e+00
9.752850290015635526e-01,3.194888178913737886e-03,-1.267305644302449408e-01,-1.150159744408945639e-01,8.474820143884892687e+00,3.812949640287769948e-01,3.354916067146282987e+00
9.802429014385939388e-01,7.454739084132055646e-03,-1.309904153354632672e-01,-9.584664536741213658e-02,8.505995203836929974e+00,4.316546762589927866e-01,3.225419664268585063e+00
9.852007738756243249e-01,7.454739084132055646e-03,-1.171458998935037271e-01,-8.093716719914803570e-02,8.609112709832134058e+00,4.580335731414867939e-01,3.050359712230215958e+00
9.901586463126547111e-01,2.129925452609158880e-03,-9.478168264110756192e-02,-7.135250266240682204e-02,8.673860911270983465e+00,4.388489208633093441e-01,3.031175059952038175e+00
9.951165187496852083e-01,-8.519701810436635520e-03,-7.028753993610223350e-02,-6.496272630457934627e-02,8.762589928057554545e+00,4.412470023980815115e-01,3.055155875299760293e+00
1.000074391186715816e+00,-2.342917997870074681e-02,-5.644302449414270728e-02,-6.176783812566560145e-02,8.683453237410072134e+00,5.131894484412470314e-01,3.100719424460431473e+00
1.005032263623746092e+00,-3.727369542066027996e-02,-4.685835995740149362e-02,-4.792332268370606829e-02,8.597122302158274110e+00,5.899280575539568305e-01,3.107913669064748419e+00
1.009990136060776589e+00,-5.005324813631523151e-02,-3.407880724174654208e-02,-2.981895633652822258e-02,8.635491606714628787e+00,6.282973621103117301e-01,3.045563549160671624e+00
1.014948008497807086e+00,-6.496272630457934627e-02,-1.810436634717784918e-02,-8.519701810436635520e-03,8.829736211031175230e+00,5.011990407673860837e-01,3.014388489208633004e+00
1.019905880934837361e+00,-7.987220447284344715e-02,5.324813631522896766e-03,3.194888178913737886e-03,9.038369304556354678e+00,3.669064748201438797e-01,2.985611510791366996e+00
1.024863753371867858e+00,-1.011714589989350377e-01,3.727369542066027996e-02,-1.064962726304579440e-03,9.011990407673861725e+00,3.860911270983213295e-01,3.071942446043165464e+00
1.029821625808898133e+00,-1.224707135250266282e-01,5.537806176783812567e-02,-1.064962726304579440e-03,8.851318944844123848e+00,4.748201438848920763e-01,3.249400479616306736e+00
1.034779498245928631e+00,-1.395101171458998923e-01,6.176783812566560145e-02,1.277955271565495154e-02,8.709832134292565087e+00,4.340527577937650094e-01,3.311750599520383531e+00
1.039737370682959128e+00,-1.544195953141639932e-01,6.389776357827475772e-02,2.023429179978700893e-02,8.748201438848921541e+00,2.374100719424460382e-01,3.378896882494004661e+00
1.044695243119989403e+00,-1.629392971246006461e-01,6.283280085197018305e-02,1.490947816826411129e-02,8.820143884892086561e+00,8.633093525179856564e-02,3.443645083932853623e+00
1.049653115557019900e+00,-1.693290734824281218e-01,5.111821086261980618e-02,0.000000000000000000e+00,8.793764988009591832e+00,6.954436450839328321e-02,3.520383693045563422e+00
1.054610987994050397e+00,-1.703940362087326965e-01,3.514376996805111675e-02,-1.171458998935037341e-02,8.741007194244604150e+00,1.151079136690647542e-01,3.532374100719424259e+00
1.059568860431080672e+00,-1.661341853035143701e-01,2.449414270500532495e-02,-1.490947816826411129e-02,8.714628297362111198e+00,7.434052757793764565e-02,3.414868105515587615e+00
1.064526732868111170e+00,-1.565495207667731703e-01,2.342917997870074681e-02,-1.384451544195953142e-02,8.851318944844123848e+00,-4.556354916067146404e-02,3.292565947242206192e+00
1.069484605305141667e+00,-1.480298189563365174e-01,3.088391906283280072e-02,-2.342917997870074681e-02,9.059952038369305072e+00,-1.942446043165467762e-01,3.199040767386091222e+00
1.074442477742171942e+00,-1.427050053248136441e-01,4.259850905218317413e-02,-4.579339723109691201e-02,9.167865707434053490e+00,-2.158273381294963933e-01,3.153477218225419598e+00
1.079400350179202439e+00,-1.331203407880724165e-01,6.176783812566560145e-02,-7.028753993610223350e-02,9.160671462829736100e+00,-1.510791366906474864e-01,3.146282973621103096e+00
1.084358222616232936e+00,-1.246006389776357776e-01,8.200212992545261037e-02,-8.626198083067092293e-02,9.115107913669064033e+00,-8.153477218225420320e-02,3.148681055155875264e+00
1.089316095053263211e+00,-1.139510117145899892e-01,1.064962726304579388e-01,-9.371671991480298725e-02,9.129496402877697037e+00,-4.796163069544364527e-02,3.220623501199040728e+00
1.094273967490293709e+00,-1.054313099041533502e-01,1.309904153354632672e-01,-9.797657082002129980e-02,9.134292565947241371e+00,-4.076738609112710160e-02,3.376498800959232494e+00
1.099231839927324206e+00,-9.691160809371672513e-02,1.373801916932907430e-01,-1.118210862619808260e-01,9.074340527577938076e+00,1.918465227817745672e-02,3.558752997601918544e+00
1.104189712364354481e+00,-9.265175718849839870e-02,1.267305644302449408e-01,-1.256656017039403661e-01,9.002398081534773056e+00,1.247002398081534791e-01,3.640287769784172678e+00
1.109147584801384978e+00,-9.158679446219382403e-02,1.160809371671991524e-01,-1.341853035143769912e-01,8.918465227817746310e+00,2.158273381294963933e-01,3.721822541966426812e+00
1.114105457238415475e+00,-8.626198083067092293e-02,1.075612353567625135e-01,-1.384451544195953177e-01,8.882494004796162912e+00,2.901678657074340251e-01,3.750599520383693264e+00
1.119063329675445750e+00,-8.839190628328008614e-02,9.265175718849839870e-02,-1.363152289669861683e-01,8.923261390887290645e+00,3.309352517985611475e-01,3.721822541966426812e+00
1.124021202112476248e+00,-9.158679446219382403e-02,7.880724174653887248e-02,-1.363152289669861683e-01,8.978417266187049606e+00,3.908872901678657197e-01,3.702637889688249473e+00
1.128979074549506745e+00,-9.904153354632587447e-02,6.709265175718849561e-02,-1.384451544195953177e-01,9.031175059952039064e+00,4.076738609112710021e-01,3.712230215827338142e+00
1.133936946986537020e+00,-1.011714589989350377e-01,5.750798722044728195e-02,-1.395101171458998923e-01,9.098321342925659749e+00,4.628297362110311841e-01,3.594724220623501054e+00
1.138894819423567517e+00,-1.054313099041533502e-01,5.431309904153354406e-02,-1.320553780617678419e-01,9.107913669064748419e+00,5.131894484412470314e-01,3.465227817745803574e+00
1.143852691860598014e+00,-1.096911608093716767e-01,6.389776357827475772e-02,-1.235356762513312029e-01,9.203836930455635112e+00,5.083932853717025857e-01,3.395683453237410276e+00
1.148810564297628289e+00,-1.203407880724174650e-01,7.880724174653887248e-02,-1.139510117145899892e-01,9.302158273381294862e+00,5.083932853717025857e-01,3.426858513189448452e+00
1.153768436734658787e+00,-1.267305644302449408e-01,9.371671991480298725e-02,-1.064962726304579388e-01,9.326139088729016535e+00,5.083932853717025857e-01,3.522781774580335590e+00
1.158726309171689284e+00,-1.405750798722044670e-01,1.075612353567625135e-01,-1.011714589989350377e-01,9.309352517985612252e+00,5.323741007194244812e-01,3.647482014388489180e+00
1.163684181608719559e+00,-1.554845580404685956e-01,1.107561235356762513e-01,-9.478168264110756192e-02,9.227817745803356786e+00,5.899280575539568305e-01,3.700239808153477306e+00
1.168642054045750056e+00,-1.661341853035143701e-01,1.118210862619808260e-01,-8.626198083067092293e-02,9.155875299760191766e+00,5.971223021582733326e-01,3.700239808153477306e+00
1.173599926482780553e+00,-1.831735889243876481e-01,1.128860489882854146e-01,-7.561235356762513460e-02,9.136690647482014427e+00,5.851318944844124958e-01,3.803357314148680945e+00
1.178557798919810828e+00,-1.959531416400425996e-01,1.064962726304579388e-01,-6.709265175718849561e-02,9.163069544364509156e+00,5.443645083932853179e-01,3.884892086330935079e+00
1.183515671356841326e+00,-2.076677316293929765e-01,9.371671991480298725e-02,-6.070287539936101984e-02,9.199040767386090778e+00,5.035971223021582510e-01,3.911270983213429364e+00
1.188473543793871823e+00,-2.076677316293929765e-01,7.774227902023429781e-02,-5.324813631522896940e-02,9.136690647482014427e+00,5.227817745803357008e-01,3.865707434052757741e+00
1.193431416230902098e+00,-2.108626198083067005e-01,6.176783812566560145e-02,-4.579339723109691201e-02,9.074340527577938076e+00,5.563549160671462657e-01,3.836930455635491732e+00
1.198389288667932595e+00,-2.097976570820021258e-01,5.431309904153354406e-02,-2.981895633652822258e-02,9.095923261390886694e+00,5.035971223021582510e-01,3.829736211031175230e+00
1.203347161104962870e+00,-2.023429179978700754e-01,4.898828541001064990e-02,-1.384451544195953142e-02,9.254196642685851515e+00,3.621103117505995450e-01,3.798561151079136611e+00
1.208305033541993367e+00,-1.959531416400425996e-01,4.046858359957401785e-02,-8.519701810436635520e-03,9.362110311750599934e+00,2.110311750599520308e-01,3.776978417266187105e+00
1.213262905979023865e+00,-1.874334398296059745e-01,3.940362087326943624e-02,-1.490947816826411129e-02,9.338129496402878260e+00,1.702637889688249362e-01,3.764988009592326268e+00
1.218220778416054140e+00,-1.810436634717784987e-01,3.727369542066027996e-02,-2.129925452609158706e-02,9.227817745803356786e+00,2.254196642685851182e-01,3.829736211031175230e+00
1.223178650853084637e+00,-1.703940362087326965e-01,2.875399361022364098e-02,-1.810436634717784918e-02,9.165467625899280435e+00,2.254196642685851182e-01,3.815347721822541782e+00
1.228136523290115134e+00,-1.586794462193823196e-01,1.810436634717784918e-02,-1.597444089456868943e-02,9.177458033573142160e+00,1.247002398081534791e-01,3.800959232613908778e+00
1.233094395727145409e+00,-1.512247071352502692e-01,5.324813631522896766e-03,-2.129925452609158706e-02,9.275779376498800133e+00,3.836930455635491344e-02,3.805755395683453113e+00
1.238052268164175906e+00,-1.533546325878594185e-01,-6.389776357827475772e-03,-3.727369542066027996e-02,9.304556354916067917e+00,7.194244604316546443e-02,3.750599520383693264e+00
1.243010140601206404e+00,-1.565495207667731703e-01,-1.810436634717784918e-02,-5.218317358892438779e-02,9.323741007194245256e+00,1.151079136690647542e-01,3.640287769784172678e+00
1.247968013038236679e+00,-1.576144834930777450e-01,-1.384451544195953142e-02,-6.176783812566560145e-02,9.321342925659472201e+00,2.038369304556355011e-01,3.539568345323741205e+00
1.252925885475267176e+00,-1.661341853035143701e-01,2.129925452609158880e-03,-6.709265175718849561e-02,9.340527577937649539e+00,2.494004796163069582e-01,3.618705035971223172e+00
1.257883757912297673e+00,-1.725239616613418459e-01,4.259850905218317760e-03,-6.922257720979765883e-02,9.309352517985612252e+00,3.213429256594724226e-01,3.745803357314148485e+00
1.262841630349327948e+00,-1.778487752928647470e-01,-8.519701810436635520e-03,-6.815761448349308416e-02,9.258992805755395850e+00,3.477218225419664299e-01,3.757793764988009766e+00
1.267799502786358445e+00,-1.831735889243876481e-01,-1.916932907348242732e-02,-6.496272630457934627e-02,9.184652278177457774e+00,3.884892086330935523e-01,3.693045563549160804e+00
1.272757375223388943e+00,-1.874334398296059745e-01,-3.088391906283280072e-02,-5.963791267305644517e-02,9.213429256594723782e+00,4.076738609112710021e-01,3.575539568345323715e+00
1.277715247660419218e+00,-1.938232161874334503e-01,-3.301384451544196047e-02,-5.218317358892438779e-02,9.302158273381294862e+00,3.525179856115107646e-01,3.573141486810551548e+00
1.282673120097449715e+00,-1.980830670926517489e-01,-3.407880724174654208e-02,-4.472843450479233041e-02,9.306954436450839196e+00,3.573141486810551548e-01,3.515587529976019088e+00
1.287630992534480212e+00,-2.044728434504792247e-01,-3.833865814696485463e-02,-3.940362087326943624e-02,9.258992805755395850e+00,3.717026378896882699e-01,3.549160671462829875e+00
1.292588864971510487e+00,-2.087326943556975511e-01,-4.579339723109691201e-02,-3.514376996805111675e-02,9.213429256594723782e+00,3.621103117505995450e-01,3.431654676258992787e+00
1.297546737408540984e+00,-2.172523961661341763e-01,-4.685835995740149362e-02,-2.555910543130990309e-02,9.203836930455635112e+00,3.333333333333333148e-01,3.342925659472422151e+00
1.302504609845571482e+00,-2.204472843450479280e-01,-4.792332268370606829e-02,-1.810436634717784918e-02,9.285371702637888802e+00,2.565947242206235157e-01,3.206235011990407724e+00
1.307462482282601757e+00,-2.279020234291799785e-01,-3.940362087326943624e-02,-1.277955271565495154e-02,9.422062350119903229e+00,9.832134292565947176e-02,3.131894484412470092e+00
1.312420354719632254e+00,-2.342917997870074542e-01,-2.236421725239616520e-02,-2.129925452609158706e-02,9.462829736211030962e+00,3.836930455635491344e-02,3.124700239808153590e+00
1.317378227156662751e+00,-2.364217252396166036e-01,-2.129925452609158880e-03,-3.088391906283280072e-02,9.400479616306954611e+00,6.954436450839328321e-02,3.110311750599520586e+00
1.322336099593693026e+00,-2.438764643237486818e-01,1.703940362087327104e-02,-3.407880724174654208e-02,9.345323741007193874e+00,7.913669064748200810e-02,3.189448441247002553e+00
1.327293972030723523e+00,-2.470713525026624058e-01,3.088391906283280072e-02,-3.620873269435569836e-02,9.287769784172661858e+00,1.462829736211031240e-01,3.143884892086330929e+00
1.332251844467754021e+00,-2.545260915867944562e-01,4.792332268370606829e-02,-3.727369542066027996e-02,9.311750599520383531e+00,1.366906474820143991e-01,3.254196642685851515e+00
1.337209716904784296e+00,-2.598509052183173851e-01,5.857294994675186356e-02,-4.259850905218317413e-02,9.326139088729016535e+00,1.486810551558752913e-01,3.290167865707434025e+00
1.342167589341814793e+00,-2.736954206602769113e-01,6.496272630457934627e-02,-4.579339723109691201e-02,9.235011990407674176e+00,1.990407673860911386e-01,3.390887290167865498e+00
1.347125461778845068e+00,-2.854100106496272882e-01,6.709265175718849561e-02,-5.111821086261980618e-02,9.110311750599519698e+00,2.901678657074340251e-01,3.498800959232613916e+00
1.352083334215875565e+00,-2.981895633652822397e-01,6.496272630457934627e-02,-5.111821086261980618e-02,9.028776978417266008e+00,3.405275779376498724e-01,3.585131894484412385e+00
1.357041206652906062e+00,-3.077742279020234117e-01,5.324813631522896940e-02,-4.579339723109691201e-02,9.074340527577938076e+00,2.637889688249400733e-01,3.659472422062350017e+00
1.361999079089936338e+00,-3.162939297124600646e-01,4.153354632587859252e-02,-4.366347177848775574e-02,9.127098321342925757e+00,1.990407673860911386e-01,3.640287769784172678e+00
1.366956951526966835e+00,-3.216187433439829380e-01,2.768903088391906284e-02,-5.111821086261980618e-02,9.127098321342925757e+00,1.894484412470023860e-01,3.729016786570743314e+00
1.371914823963997332e+00,-3.184238551650692139e-01,1.490947816826411129e-02,-5.111821086261980618e-02,9.086330935251798024e+00,1.990407673860911386e-01,3.697841726618705138e+00
1.376872696401027607e+00,-3.120340788072417659e-01,3.194888178913737886e-03,-4.579339723109691201e-02,9.093525179856115415e+00,1.870503597122302186e-01,3.642685851318944845e+00
1.381830568838058104e+00,-3.045793397231096877e-01,-4.259850905218317760e-03,-3.514376996805111675e-02,9.136690647482014427e+00,9.352517985611510931e-02,3.585131894484412385e+00
1.386788441275088601e+00,-2.917997870074547362e-01,-4.259850905218317760e-03,-3.407880724174654208e-02,9.232613908872901121e+00,4.796163069544364527e-02,3.558752997601918544e+00
1.391746313712118877e+00,-2.811501597444089340e-01,-6.389776357827475772e-03,-3.620873269435569836e-02,9.266187050359711463e+00,2.877697841726618855e-02,3.532374100719424259e+00
1.396704186149149374e+00,-2.673056443024494078e-01,-7.454739084132055646e-03,-3.727369542066027996e-02,9.242206235011989790e+00,5.755395683453237710e-02,3.455635491606714460e+00
1.401662058586179871e+00,-2.587859424920127549e-01,-3.194888178913737886e-03,-3.407880724174654208e-02,9.215827338129496837e+00,6.714628297362110199e-02,3.407673860911271113e+00
1.406619931023210146e+00,-2.492012779552715551e-01,2.129925452609158880e-03,-3.194888178913737886e-02,9.247002398081534125e+00,4.076738609112710160e-02,3.342925659472422151e+00
1.411577803460240643e+00,-2.449414270500532564e-01,9.584664536741213658e-03,-3.620873269435569836e-02,9.311750599520383531e+00,-2.158273381294964141e-02,3.350119904076738653e+00
1.416535675897271140e+00,-2.449414270500532564e-01,2.023429179978700893e-02,-4.685835995740149362e-02,9.306954436450839196e+00,-2.398081534772182090e-03,3.405275779376498946e+00
1.421493548334301416e+00,-2.481363152289669805e-01,2.555910543130990309e-02,-5.324813631522896940e-02,9.242206235011989790e+00,6.714628297362110199e-02,3.482014388489208745e+00
1.426451420771331913e+00,-2.502662406815761575e-01,2.662406815761448470e-02,-5.963791267305644517e-02,9.244604316546762846e+00,1.007194244604316530e-01,3.498800959232613916e+00
1.431409293208362410e+00,-2.577209797657081802e-01,3.088391906283280072e-02,-6.389776357827475772e-02,9.244604316546762846e+00,1.199040767386091166e-01,3.486810551558753080e+00
1.436367165645392685e+00,-2.673056443024494078e-01,3.620873269435569836e-02,-6.815761448349308416e-02,9.177458033573142160e+00,1.870503597122302186e-01,3.640287769784172678e+00
1.441325038082423182e+00,-2.779552715654952100e-01,3.301384451544196047e-02,-7.241746538871139671e-02,9.098321342925659749e+00,2.206235011990407557e-01,3.724220623501198979e+00
1.446282910519453679e+00,-2.896698615548455868e-01,1.703940362087327104e-02,-7.561235356762513460e-02,9.064748201438849406e+00,2.494004796163069582e-01,3.786570743405275774e+00
1.451240782956483955e+00,-3.003194888178913891e-01,0.000000000000000000e+00,-7.348242811501597138e-02,9.081534772182253690e+00,2.254196642685851182e-01,3.726618705035971146e+00
1.456198655393514452e+00,-3.130990415335463406e-01,-1.064962726304579353e-02,-7.454739084132055993e-02,9.155875299760191766e+00,2.134292565947242259e-01,3.630695443645084008e+00
1.461156527830544949e+00,-3.194888178913737886e-01,-1.277955271565495154e-02,-7.348242811501597138e-02,9.160671462829736100e+00,2.661870503597122406e-01,3.645083932853717013e+00
1.466114400267575224e+00,-3.226837060702875126e-01,-1.490947816826411129e-02,-6.709265175718849561e-02,9.139088729016785706e+00,2.949640287769784153e-01,3.666666666666666519e+00
1.471072272704605721e+00,-3.290734824281150162e-01,-1.810436634717784918e-02,-5.963791267305644517e-02,9.129496402877697037e+00,2.877697841726618577e-01,3.645083932853717013e+00
1.476030145141636218e+00,-3.407880724174653930e-01,-1.916932907348242732e-02,-5.111821086261980618e-02,9.189448441247002108e+00,2.853717026378896904e-01,3.606714628297361891e+00
1.480988017578666494e+00,-3.503727369542066206e-01,-1.916932907348242732e-02,-5.005324813631523151e-02,9.182254196642686495e+00,2.494004796163069582e-01,3.594724220623501054e+00
1.485945890015696991e+00,-3.631522896698615721e-01,-1.597444089456868943e-02,-5.005324813631523151e-02,9.189448441247002108e+00,2.805755395683453002e-01,3.577937649880095883e+00
1.490903762452727488e+00,-3.759318423855165237e-01,-1.384451544195953142e-02,-4.685835995740149362e-02,9.247002398081534125e+00,2.613908872901678504e-01,3.510791366906474753e+00
1.495861634889757763e+00,-3.865814696485623259e-01,-5.324813631522896766e-03,-4.685835995740149362e-02,9.258992805755395850e+00,1.798561151079136611e-01,3.474820143884892243e+00
1.500819507326788260e+00,-3.929712460063897739e-01,7.454739084132055646e-03,-5.005324813631523151e-02,9.258992805755395850e+00,1.582733812949640162e-01,3.494004796163069582e+00
1.505777379763818757e+00,-3.982960596379126472e-01,2.129925452609158706e-02,-5.431309904153354406e-02,9.227817745803356786e+00,1.798561151079136611e-01,3.573141486810551548e+00
1.510735252200849033e+00,-4.014909478168264267e-01,2.662406815761448470e-02,-5.537806176783812567e-02,9.129496402877697037e+00,1.942446043165467762e-01,3.635491606714628343e+00
1.515693124637879530e+00,-4.004259850905218521e-01,2.662406815761448470e-02,-5.218317358892438779e-02,9.069544364508393741e+00,1.342925659472422040e-01,3.719424460431654644e+00
1.520650997074909805e+00,-4.004259850905218521e-01,1.916932907348242732e-02,-5.324813631522896940e-02,9.019184652278177339e+00,1.294964028776978415e-01,3.724220623501198979e+00
1.525608869511940302e+00,-3.982960596379126472e-01,8.519701810436635520e-03,-5.324813631522896940e-02,9.026378896882494729e+00,1.103117505995203779e-01,3.736211031175059816e+00
1.530566741948970799e+00,-3.972310969116080726e-01,1.064962726304579440e-03,-5.537806176783812567e-02,9.074340527577938076e+00,1.031175059952038342e-01,3.669064748201438686e+00
1.535524614386001074e+00,-3.972310969116080726e-01,-2.129925452609158880e-03,-5.750798722044728195e-02,9.067146282973620686e+00,1.223021582733812979e-01,3.616306954436451004e+00
1.540482486823031572e+00,-3.972310969116080726e-01,-1.064962726304579440e-03,-5.857294994675186356e-02,9.026378896882494729e+00,1.318944844124700366e-01,3.541966426858513373e+00
1.545440359260062069e+00,-4.014909478168264267e-01,8.519701810436635520e-03,-6.176783812566560145e-02,9.021582733812950394e+00,1.079136690647481966e-01,3.546762589928057707e+00
1.550398231697092344e+00,-4.078807241746538748e-01,1.490947816826411129e-02,-6.922257720979765883e-02,9.105515587529975363e+00,7.913669064748200810e-02,3.529976019184652092e+00
1.555356104134122841e+00,-4.153354632587859530e-01,1.810436634717784918e-02,-7.667731629392970927e-02,9.158273381294964821e+00,4.076738609112710160e-02,3.470023980815347908e+00
1.560313976571153338e+00,-4.249201277955271805e-01,3.088391906283280072e-02,-8.732694355697551147e-02,9.182254196642686495e+00,4.076738609112710160e-02,3.544364508393285540e+00
1.565271849008183613e+00,-4.302449414270500538e-01,4.898828541001064990e-02,-9.691160809371672513e-02,9.129496402877697037e+00,1.055155875299760154e-01,3.637889688249400511e+00
1.570229721445214111e+00,-4.345047923322683525e-01,5.750798722044728195e-02,-1.011714589989350377e-01,9.074340527577938076e+00,8.393285371702638442e-02,3.748201438848920652e+00
1.575187593882244608e+00,-4.323748668796592032e-01,5.857294994675186356e-02,-1.064962726304579388e-01,9.038369304556354678e+00,5.275779376498800771e-02,3.858513189448441238e+00
1.580145466319274883e+00,-4.345047923322683525e-01,5.218317358892438779e-02,-1.182108626198083018e-01,8.968824940047960936e+00,4.316546762589928282e-02,3.952038369304556209e+00
1.585103338756305380e+00,-4.345047923322683525e-01,3.940362087326943624e-02,-1.288604898828540901e-01,8.956834532374100988e+00,3.117505995203836977e-02,3.995203836930455665e+00
1.590061211193335877e+00,-4.313099041533546285e-01,1.810436634717784918e-02,-1.384451544195953177e-01,8.942446043165467984e+00,1.678657074340527550e-02,3.940047961630695372e+00
1.595019083630366152e+00,-4.281150159744409045e-01,2.129925452609158880e-03,-1.501597444089456945e-01,8.997601918465226944e+00,-3.597122302158273222e-02,3.906474820143885029e+00
1.599976956067396650e+00,-4.206602768903088263e-01,-6.389776357827475772e-03,-1.682641107561235472e-01,9.002398081534773056e+00,-5.755395683453237710e-02,3.844124700239808234e+00
1.604934828504427147e+00,-4.078807241746538748e-01,-1.490947816826411129e-02,-1.799787007454738963e-01,9.009592326139088669e+00,-4.556354916067146404e-02,3.829736211031175230e+00
1.609892700941457422e+00,-3.929712460063897739e-01,-2.342917997870074681e-02,-1.884984025559105492e-01,9.004796163069544335e+00,-9.592326139088728360e-03,3.798561151079136611e+00
1.614850573378487919e+00,-3.759318423855165237e-01,-3.088391906283280072e-02,-1.991480298189563236e-01,9.019184652278177339e+00,1.438848920863309427e-02,3.695443645083932971e+00
1.619808445815518416e+00,-3.578274760383386432e-01,-3.088391906283280072e-02,-2.023429179978700754e-01,8.990407673860911331e+00,5.035971223021582649e-02,3.661870503597122184e+00
1.624766318252548691e+00,-3.407880724174653930e-01,-3.088391906283280072e-02,-2.023429179978700754e-01,9.011990407673861725e+00,1.342925659472422040e-01,3.693045563549160804e+00
1.629724190689579189e+00,-3.280085197018104415e-01,-2.768903088391906284e-02,-2.023429179978700754e-01,9.062350119904076351e+00,1.630695443645084064e-01,3.657074340527577849e+00
1.634682063126609686e+00,-3.205537806176783633e-01,-2.768903088391906284e-02,-2.023429179978700754e-01,9.119904076738608367e+00,1.390887290167865664e-01,3.594724220623501054e+00
1.639639935563639961e+00,-3.162939297124600646e-01,-2.555910543130990309e-02,-2.076677316293929765e-01,9.131894484412470092e+00,2.014388489208633060e-01,3.539568345323741205e+00
1.644597808000670458e+00,-3.141640042598509153e-01,-1.277955271565495154e-02,-2.076677316293929765e-01,9.158273381294964821e+00,2.829736211031175230e-01,3.532374100719424259e+00
1.649555680437700955e+00,-3.120340788072417659e-01,1.064962726304579440e-03,-2.097976570820021258e-01,9.129496402877697037e+00,3.764988009592326046e-01,3.551558752997602042e+00
1.654513552874731230e+00,-3.162939297124600646e-01,1.597444089456868943e-02,-2.044728434504792247e-01,9.100719424460431028e+00,4.340527577937650094e-01,3.635491606714628343e+00
1.659471425311761728e+00,-3.205537806176783633e-01,2.129925452609158706e-02,-1.948881789137380249e-01,9.081534772182253690e+00,4.532374100719424592e-01,3.741007194244604150e+00
1.664429297748792003e+00,-3.290734824281150162e-01,1.810436634717784918e-02,-1.906283280085196985e-01,9.019184652278177339e+00,4.772182254196642437e-01,3.784172661870503607e+00
1.669387170185822500e+00,-3.397231096911608184e-01,1.064962726304579353e-02,-1.874334398296059745e-01,8.995203836930455665e+00,4.892086330935251914e-01,3.755395683453237599e+00
1.674345042622852997e+00,-3.471778487752928410e-01,4.259850905218317760e-03,-1.810436634717784987e-01,8.952038369304556653e+00,5.419664268585131506e-01,3.726618705035971146e+00
1.679302915059883272e+00,-3.546325878594249192e-01,2.129925452609158880e-03,-1.714589989350372712e-01,8.964028776978416602e+00,5.467625899280575963e-01,3.714628297362110310e+00
1.684260787496913769e+00,-3.610223642172524228e-01,0.000000000000000000e+00,-1.597444089456868943e-01,8.980815347721822661e+00,4.796163069544364665e-01,3.688249400479616469e+00
1.689218659933944267e+00,-3.652822151224707214e-01,-1.064962726304579440e-03,-1.554845580404685956e-01,9.076738609112709355e+00,3.908872901678657197e-01,3.604316546762589724e+00
1.694176532370974542e+00,-3.727369542066027441e-01,1.064962726304579440e-03,-1.544195953141639932e-01,9.127098321342925757e+00,3.597122302158273222e-01,3.496402877697841749e+00
1.699134404808005039e+00,-3.780617678381256730e-01,9.584664536741213658e-03,-1.576144834930777450e-01,9.141486810551558762e+00,3.477218225419664299e-01,3.443645083932853623e+00
1.704092277245035536e+00,-3.812566560170393970e-01,2.555910543130990309e-02,-1.586794462193823196e-01,9.175059952038369104e+00,3.405275779376498724e-01,3.410071942446043280e+00
1.709050149682065811e+00,-3.823216187433439717e-01,4.366347177848775574e-02,-1.586794462193823196e-01,9.235011990407674176e+00,3.093525179856115304e-01,3.434052757793764954e+00
1.714008022119096308e+00,-3.823216187433439717e-01,6.389776357827475772e-02,-1.640042598509052207e-01,9.249400479616307180e+00,2.973621103117505826e-01,3.474820143884892243e+00
1.718965894556126806e+00,-3.865814696485623259e-01,8.306709265175718504e-02,-1.703940362087326965e-01,9.187050359712230829e+00,3.621103117505995450e-01,3.613908872901678837e+00
1.723923766993157081e+00,-3.908413205537806245e-01,9.584664536741213658e-02,-1.735889243876464205e-01,9.115107913669064033e+00,4.388489208633093441e-01,3.685851318944844301e+00
1.728881639430187578e+00,-3.929712460063897739e-01,9.904153354632587447e-02,-1.735889243876464205e-01,9.091127098321342359e+00,4.628297362110311841e-01,3.786570743405275774e+00
1.733839511867218075e+00,-3.929712460063897739e-01,1.001064962726304630e-01,-1.714589989350372712e-01,9.076738609112709355e+00,4.580335731414867939e-01,3.844124700239808234e+00
1.738797384304248350e+00,-3.972310969116080726e-01,9.691160809371672513e-02,-1.703940362087326965e-01,9.079136690647482411e+00,4.724220623501199090e-01,3.836930455635491732e+00
1.743755256741278847e+00,-4.036208732694355761e-01,9.371671991480298725e-02,-1.693290734824281218e-01,9.028776978417266008e+00,5.179856115107913661e-01,3.882494004796162912e+00
1.748713129178309345e+00,-4.068157614483493001e-01,9.158679446219382403e-02,-1.650692225772097954e-01,9.009592326139088669e+00,5.563549160671462657e-01,3.906474820143885029e+00
1.753671001615339620e+00,-4.078807241746538748e-01,8.945686900958466081e-02,-1.554845580404685956e-01,9.002398081534773056e+00,5.563549160671462657e-01,3.906474820143885029e+00
1.758628874052370117e+00,-4.057507987220447254e-01,8.732694355697551147e-02,-1.512247071352502692e-01,9.043165467625899012e+00,5.035971223021582510e-01,3.916067146282973699e+00
1.763586746489400614e+00,-4.036208732694355761e-01,8.732694355697551147e-02,-1.469648562300319428e-01,9.045563549160672068e+00,5.011990407673860837e-01,3.899280575539568527e+00
1.768544618926430889e+00,-3.940362087326943485e-01,8.839190628328008614e-02,-1.395101171458998923e-01,9.007194244604317390e+00,4.772182254196642437e-01,3.911270983213429364e+00
1.773502491363461386e+00,-3.855165069222576957e-01,8.945686900958466081e-02,-1.309904153354632672e-01,9.011990407673861725e+00,4.508393285371702364e-01,3.932853717026378870e+00
1.778460363800491884e+00,-3.716719914802981695e-01,8.945686900958466081e-02,-1.214057507987220397e-01,9.011990407673861725e+00,3.908872901678657197e-01,3.875299760191846410e+00
1.783418236237522159e+00,-3.588924387646432179e-01,9.158679446219382403e-02,-1.139510117145899892e-01,9.067146282973620686e+00,3.141486810551558650e-01,3.863309352517985573e+00
1.788376108674552656e+00,-3.439829605963791170e-01,9.584664536741213658e-02,-1.128860489882854146e-01,9.026378896882494729e+00,3.069544364508393075e-01,3.892086330935251581e+00
1.793333981111583153e+00,-3.301384451544195908e-01,1.011714589989350377e-01,-1.139510117145899892e-01,8.997601918465226944e+00,3.285371702637889801e-01,3.937649880095923205e+00
1.798291853548613428e+00,-3.184238551650692139e-01,1.033013844515442009e-01,-1.118210862619808260e-01,8.971223021582733992e+00,3.884892086330935523e-01,3.992805755395683498e+00
1.803249725985643925e+00,-3.099041533546325611e-01,1.022364217252396124e-01,-1.043663471778487756e-01,8.942446043165467984e+00,4.172661870503597270e-01,4.055155875299759849e+00
1.808207598422674423e+00,-3.035143769968051131e-01,9.584664536741213658e-02,-9.691160809371672513e-02,8.940047961630694928e+00,4.628297362110311841e-01,4.131894484412470092e+00
1.813165470859704698e+00,-3.024494142705005384e-01,8.519701810436634826e-02,-9.052183173588924936e-02,8.928057553956834980e+00,5.035971223021582510e-01,4.103117505995204084e+00
1.818123343296735195e+00,-3.077742279020234117e-01,7.348242811501597138e-02,-8.306709265175718504e-02,8.872901678657074243e+00,5.323741007194244812e-01,4.153477218225419598e+00
1.823081215733765692e+00,-3.162939297124600646e-01,5.963791267305644517e-02,-7.561235356762513460e-02,8.870503597122302963e+00,5.563549160671462657e-01,4.177458033573141272e+00
1.828039088170795967e+00,-3.258785942492012921e-01,4.472843450479233041e-02,-6.496272630457934627e-02,8.913669064748201976e+00,5.515587529976019310e-01,4.177458033573141272e+00
1.832996960607826464e+00,-3.365282215122470943e-01,3.194888178913737886e-02,-5.750798722044728195e-02,8.896882494004795916e+00,5.491606714628297636e-01,4.117505995203837088e+00
1.837954833044856739e+00,-3.493077742279020459e-01,1.810436634717784918e-02,-5.218317358892438779e-02,8.832134292565946510e+00,5.227817745803357008e-01,4.081534772182254578e+00
1.842912705481887237e+00,-3.620873269435569974e-01,7.454739084132055646e-03,-4.153354632587859252e-02,8.846522781774579514e+00,5.347721822541966485e-01,4.059952038369304184e+00
1.847870577918917734e+00,-3.695420660276890201e-01,-6.389776357827475772e-03,-2.768903088391906284e-02,8.913669064748201976e+00,4.388489208633093441e-01,3.990407673860911331e+00
1.852828450355948009e+00,-3.801916932907348223e-01,-1.703940362087327104e-02,-1.810436634717784918e-02,8.973621103117505271e+00,3.333333333333333148e-01,3.875299760191846410e+00
1.857786322792978506e+00,-3.876464323748669005e-01,-2.129925452609158706e-02,-1.703940362087327104e-02,9.016786570743406060e+00,2.326139088729016757e-01,3.729016786570743314e+00
1.862744195230009003e+00,-3.919062832800851992e-01,-1.810436634717784918e-02,-1.810436634717784918e-02,9.035971223021583398e+00,1.798561151079136611e-01,3.652278177458033515e+00
1.867702067667039278e+00,-3.919062832800851992e-01,-8.519701810436635520e-03,-1.597444089456868943e-02,9.081534772182253690e+00,8.633093525179856564e-02,3.561151079136690711e+00
1.872659940104069776e+00,-3.897763578274760499e-01,4.259850905218317760e-03,-1.703940362087327104e-02,9.117505995203837088e+00,-3.836930455635491344e-02,3.513189448441246920e+00
1.877617812541100273e+00,-3.823216187433439717e-01,2.023429179978700893e-02,-2.555910543130990309e-02,9.146282973621103096e+00,-1.414868105515587615e-01,3.498800959232613916e+00
1.882575684978130548e+00,-3.759318423855165237e-01,3.194888178913737886e-02,-3.620873269435569836e-02,9.112709832134292753e+00,-1.630695443645084064e-01,3.505995203836930418e+00
1.887533557415161045e+00,-3.652822151224707214e-01,3.940362087326943624e-02,-4.792332268370606829e-02,9.052757793764987682e+00,-1.247002398081534791e-01,3.532374100719424259e+00
1.892491429852191542e+00,-3.578274760383386432e-01,4.792332268370606829e-02,-5.857294994675186356e-02,9.026378896882494729e+00,-1.558752997601918489e-01,3.573141486810551548e+00
1.897449302289221817e+00,-3.471778487752928410e-01,5.963791267305644517e-02,-6.922257720979765883e-02,9.057553956834532016e+00,-1.942446043165467762e-01,3.666666666666666519e+00
1.902407174726252315e+00,-3.375931842385516690e-01,6.283280085197018305e-02,-8.626198083067092293e-02,9.045563549160672068e+00,-1.462829736211031240e-01,3.724220623501198979e+00
1.907365047163282812e+00,-3.343982960596378895e-01,5.750798722044728195e-02,-1.011714589989350377e-01,8.959232613908872267e+00,-1.247002398081534791e-01,3.844124700239808234e+00
1.912322919600313087e+00,-3.258785942492012921e-01,5.537806176783812567e-02,-1.160809371671991524e-01,8.887290167865707247e+00,-9.832134292565947176e-02,3.844124700239808234e+00
1.917280792037343584e+00,-3.216187433439829380e-01,5.218317358892438779e-02,-1.299254526091586925e-01,8.911270983213428920e+00,-7.673860911270982688e-02,3.904076738609112862e+00
1.922238664474374081e+00,-3.130990415335463406e-01,4.472843450479233041e-02,-1.427050053248136441e-01,8.894484412470024637e+00,-3.836930455635491344e-02,3.956834532374100544e+00
1.927196536911404356e+00,-3.077742279020234117e-01,3.088391906283280072e-02,-1.565495207667731703e-01,8.832134292565946510e+00,1.678657074340527550e-02,3.985611510791366996e+00
1.932154409348434854e+00,-3.045793397231096877e-01,1.810436634717784918e-02,-1.671991480298189447e-01,8.856115107913668183e+00,3.836930455635491344e-02,3.980815347721822661e+00
1.937112281785465351e+00,-3.003194888178913891e-01,9.584664536741213658e-03,-1.757188498402555976e-01,8.889688249400480302e+00,5.275779376498800771e-02,3.848920863309352569e+00
1.942070154222495626e+00,-2.981895633652822397e-01,4.259850905218317760e-03,-1.821086261980830734e-01,8.932853717026379314e+00,3.117505995203836977e-02,3.800959232613908778e+00
1.947028026659526123e+00,-2.886048988285410122e-01,1.064962726304579353e-02,-1.874334398296059745e-01,8.961630695443645322e+00,6.714628297362110199e-02,3.736211031175059816e+00
1.951985899096556620e+00,-2.811501597444089340e-01,1.490947816826411129e-02,-1.938232161874334503e-01,8.997601918465226944e+00,8.153477218225420320e-02,3.779376498800959272e+00
1.956943771533586895e+00,-2.715654952076677064e-01,1.916932907348242732e-02,-2.002129925452609260e-01,9.007194244604317390e+00,1.390887290167865664e-01,3.736211031175059816e+00
1.961901643970617393e+00,-2.662406815761448331e-01,2.449414270500532495e-02,-2.066027689030884018e-01,8.932853717026379314e+00,2.014388489208633060e-01,3.776978417266187105e+00
1.966859516407647890e+00,-2.555910543130990309e-01,2.875399361022364098e-02,-2.076677316293929765e-01,8.865707434052758629e+00,2.925659472422062479e-01,3.829736211031175230e+00
1.971817388844678165e+00,-2.502662406815761575e-01,2.875399361022364098e-02,-2.002129925452609260e-01,8.884892086330935967e+00,3.429256594724220397e-01,3.841726618705036067e+00
1.976775261281708662e+00,-2.470713525026624058e-01,2.449414270500532495e-02,-1.959531416400425996e-01,8.877697841726618577e+00,3.764988009592326046e-01,3.863309352517985573e+00
1.981733133718738937e+00,-2.492012779552715551e-01,2.555910543130990309e-02,-1.938232161874334503e-01,8.860911270983214294e+00,4.268585131894484519e-01,3.827338129496403063e+00
1.986691006155769434e+00,-2.577209797657081802e-01,2.342917997870074681e-02,-1.938232161874334503e-01,8.805755395683453557e+00,4.772182254196642437e-01,3.856115107913669071e+00
1.991648878592799932e+00,-2.662406815761448331e-01,1.916932907348242732e-02,-1.938232161874334503e-01,8.820143884892086561e+00,5.107913669064748641e-01,3.793764988009592276e+00
1.996606751029830207e+00,-2.758253461128860606e-01,1.703940362087327104e-02,-1.884984025559105492e-01,8.875299760191847298e+00,5.443645083932853179e-01,3.781774580335731439e+00
2.001564623466860926e+00,-2.822151224707135087e-01,2.129925452609158706e-02,-1.842385516506922227e-01,8.875299760191847298e+00,5.851318944844124958e-01,3.779376498800959272e+00
2.006522495903891201e+00,-2.896698615548455868e-01,2.662406815761448470e-02,-1.746538871139510229e-01,8.940047961630694928e+00,6.450839328537170125e-01,3.793764988009592276e+00
2.011480368340921476e+00,-2.960596379126730349e-01,2.981895633652822258e-02,-1.565495207667731703e-01,9.011990407673861725e+00,6.330935251798560648e-01,3.776978417266187105e+00
2.016438240777952196e+00,-3.024494142705005384e-01,3.940362087326943624e-02,-1.416400425985090417e-01,9.069544364508393741e+00,6.163069544364508934e-01,3.729016786570743314e+00
2.021396113214982471e+00,-3.130990415335463406e-01,5.324813631522896940e-02,-1.363152289669861683e-01,9.146282973621103096e+00,5.803357314148680501e-01,3.750599520383693264e+00
2.026353985652012746e+00,-3.205537806176783633e-01,6.815761448349308416e-02,-1.299254526091586925e-01,9.155875299760191766e+00,6.402877697841726778e-01,3.810551558752997447e+00
2.031311858089043465e+00,-3.301384451544195908e-01,7.454739084132055993e-02,-1.182108626198083018e-01,9.062350119904076351e+00,6.906474820143885252e-01,3.932853717026378870e+00
2.036269730526073740e+00,-3.301384451544195908e-01,7.348242811501597138e-02,-1.001064962726304630e-01,9.009592326139088669e+00,6.474820143884891799e-01,3.983213429256594829e+00
2.041227602963104015e+00,-3.280085197018104415e-01,7.028753993610223350e-02,-8.839190628328008614e-02,9.028776978417266008e+00,5.995203836930456109e-01,4.059952038369304184e+00
2.046185475400134735e+00,-3.258785942492012921e-01,6.283280085197018305e-02,-8.200212992545261037e-02,8.995203836930455665e+00,6.402877697841726778e-01,4.160671462829736100e+00
2.051143347837165010e+00,-3.205537806176783633e-01,4.792332268370606829e-02,-6.709265175718849561e-02,9.019184652278177339e+00,6.498800959232613472e-01,4.103117505995204084e+00
2.056101220274195285e+00,-3.184238551650692139e-01,3.727369542066027996e-02,-5.218317358892438779e-02,9.004796163069544335e+00,5.947242206235011652e-01,4.004796163069544335e+00
2.061059092711225560e+00,-3.099041533546325611e-01,3.833865814696485463e-02,-4.259850905218317413e-02,9.009592326139088669e+00,5.035971223021582510e-01,3.920863309352518034e+00
2.066016965148256279e+00,-3.003194888178913891e-01,4.259850905218317413e-02,-3.514376996805111675e-02,9.055155875299760737e+00,3.812949640287769948e-01,3.892086330935251581e+00
2.070974837585286554e+00,-2.875399361022364375e-01,4.366347177848775574e-02,-3.514376996805111675e-02,9.059952038369305072e+00,3.141486810551558650e-01,3.858513189448441238e+00
2.075932710022316829e+00,-2.705005324813631318e-01,4.153354632587859252e-02,-3.727369542066027996e-02,9.031175059952039064e+00,2.541966426858512929e-01,3.755395683453237599e+00
2.080890582459347549e+00,-2.481363152289669805e-01,4.579339723109691201e-02,-4.046858359957401785e-02,9.033573141486810343e+00,2.206235011990407557e-01,3.652278177458033515e+00
2.085848454896377824e+00,-2.225772097976570774e-01,6.176783812566560145e-02,-3.940362087326943624e-02,9.040767386091127733e+00,1.702637889688249362e-01,3.544364508393285540e+00
2.090806327333408099e+00,-1.970181043663471743e-01,7.667731629392970927e-02,-3.940362087326943624e-02,9.088729016786571080e+00,9.832134292565947176e-02,3.517985611510791255e+00
2.095764199770438818e+00,-1.778487752928647470e-01,9.371671991480298725e-02,-4.792332268370606829e-02,9.153477218225420486e+00,4.076738609112710160e-02,3.520383693045563422e+00
2.100722072207469093e+00,-1.597444089456868943e-01,1.086261980830670881e-01,-6.496272630457934627e-02,9.191846522781775164e+00,7.673860911270982688e-02,3.522781774580335590e+00
2.105679944644499368e+00,-1.469648562300319428e-01,1.267305644302449408e-01,-7.774227902023429781e-02,9.139088729016785706e+00,2.302158273381295084e-01,3.628297362110311841e+00
2.110637817081530088e+00,-1.320553780617678419e-01,1.458998935037273681e-01,-7.880724174653887248e-02,9.074340527577938076e+00,3.573141486810551548e-01,3.736211031175059816e+00
2.115595689518560363e+00,-1.235356762513312029e-01,1.586794462193823196e-01,-7.667731629392970927e-02,9.011990407673861725e+00,4.004796163069544446e-01,3.820143884892086117e+00
2.120553561955590638e+00,-1.192758253461128903e-01,1.640042598509052207e-01,-7.348242811501597138e-02,9.040767386091127733e+00,4.460431654676259017e-01,3.959232613908872711e+00
2.125511434392621357e+00,-1.203407880724174650e-01,1.650692225772097954e-01,-7.667731629392970927e-02,8.964028776978416602e+00,5.371702637889688159e-01,4.105515587529976251e+00
2.130469306829651632e+00,-1.256656017039403661e-01,1.522896698615548439e-01,-7.454739084132055993e-02,8.858513189448441238e+00,6.043165467625899456e-01,4.242206235011990678e+00
2.135427179266681907e+00,-1.299254526091586925e-01,1.352502662406815659e-01,-6.602768903088392094e-02,8.815347721822542226e+00,6.450839328537170125e-01,4.290167865707434025e+00
2.140385051703712627e+00,-1.320553780617678419e-01,1.192758253461128903e-01,-5.537806176783812567e-02,8.812949640287769171e+00,6.498800959232613472e-01,4.285371702637889690e+00
2.145342924140742902e+00,-1.352502662406815659e-01,1.033013844515442009e-01,-4.792332268370606829e-02,8.877697841726618577e+00,6.019184652278177783e-01,4.333333333333333037e+00
2.150300796577773177e+00,-1.384451544195953177e-01,8.626198083067092293e-02,-4.792332268370606829e-02,8.848920863309352569e+00,5.683453237410072134e-01,4.345323741007193874e+00
2.155258669014803896e+00,-1.416400425985090417e-01,6.602768903088392094e-02,-4.259850905218317413e-02,8.848920863309352569e+00,5.563549160671462657e-01,4.354916067146282543e+00
2.160216541451834171e+00,-1.373801916932907430e-01,4.898828541001064990e-02,-3.301384451544196047e-02,8.851318944844123848e+00,5.683453237410072134e-01,4.199040767386090778e+00
2.165174413888864446e+00,-1.384451544195953177e-01,4.046858359957401785e-02,-2.342917997870074681e-02,8.872901678657074243e+00,5.227817745803357008e-01,4.105515587529976251e+00
2.170132286325895166e+00,-1.331203407880724165e-01,3.407880724174654208e-02,-1.703940362087327104e-02,8.853717026378896904e+00,4.820143884892086339e-01,4.055155875299759849e+00
2.175090158762925441e+00,-1.320553780617678419e-01,2.662406815761448470e-02,-6.389776357827475772e-03,8.901678657074340251e+00,4.652278177458033515e-01,4.004796163069544335e+00
2.180048031199955716e+00,-1.331203407880724165e-01,2.129925452609158706e-02,3.194888178913737886e-03,8.968824940047960936e+00,4.196642685851318944e-01,3.889688249400479414e+00
2.185005903636986435e+00,-1.331203407880724165e-01,2.449414270500532495e-02,4.259850905218317760e-03,9.033573141486810343e+00,3.741007194244604372e-01,3.745803357314148485e+00
2.189963776074016710e+00,-1.384451544195953177e-01,3.727369542066027996e-02,2.129925452609158880e-03,9.095923261390886694e+00,3.788968824940047719e-01,3.681055155875299967e+00
2.194921648511046985e+00,-1.373801916932907430e-01,5.431309904153354406e-02,4.259850905218317760e-03,9.091127098321342359e+00,4.004796163069544446e-01,3.726618705035971146e+00
2.199879520948077705e+00,-1.395101171458998923e-01,6.815761448349308416e-02,1.064962726304579353e-02,9.050359712230216402e+00,4.196642685851318944e-01,3.884892086330935079e+00
2.204837393385107980e+00,-1.373801916932907430e-01,7.348242811501597138e-02,1.703940362087327104e-02,9.021582733812950394e+00,4.220623501199040617e-01,3.937649880095923205e+00
2.209795265822138255e+00,-1.384451544195953177e-01,7.028753993610223350e-02,2.449414270500532495e-02,8.988009592326138275e+00,4.028776978417266119e-01,3.966426858513189657e+00
2.214753138259168974e+00,-1.416400425985090417e-01,6.496272630457934627e-02,2.555910543130990309e-02,8.961630695443645322e+00,4.076738609112710021e-01,3.949640287769784042e+00
2.219711010696199249e+00,-1.469648562300319428e-01,6.283280085197018305e-02,2.981895633652822258e-02,8.968824940047960936e+00,3.908872901678657197e-01,3.923261390887290201e+00
2.224668883133229524e+00,-1.448349307774227934e-01,6.389776357827475772e-02,3.940362087326943624e-02,9.033573141486810343e+00,3.237410071942445899e-01,3.954436450839328376e+00
2.229626755570260244e+00,-1.437699680511182188e-01,6.496272630457934627e-02,4.259850905218317413e-02,9.016786570743406060e+00,3.261390887290168128e-01,3.973621103117506159e+00
2.234584628007290519e+00,-1.490947816826411199e-01,6.070287539936101984e-02,4.579339723109691201e-02,8.949640287769783598e+00,2.805755395683453002e-01,3.968824940047961825e+00
2.239542500444320794e+00,-1.490947816826411199e-01,5.537806176783812567e-02,4.685835995740149362e-02,8.899280575539568972e+00,2.829736211031175230e-01,3.961630695443644878e+00
2.244500372881351513e+00,-1.490947816826411199e-01,5.324813631522896940e-02,5.324813631522896940e-02,8.928057553956834980e+00,2.254196642685851182e-01,3.899280575539568527e+00
2.249458245318381788e+00,-1.480298189563365174e-01,5.218317358892438779e-02,5.537806176783812567e-02,8.947242206235012318e+00,1.534772182254196538e-01,3.841726618705036067e+00
2.254416117755412063e+00,-1.490947816826411199e-01,5.431309904153354406e-02,5.324813631522896940e-02,8.966426858513189657e+00,9.352517985611510931e-02,3.791366906474820109e+00
2.259373990192442783e+00,-1.501597444089456945e-01,6.176783812566560145e-02,5.005324813631523151e-02,9.014388489208633004e+00,9.592326139088729053e-02,3.762589928057554101e+00
2.264331862629473058e+00,-1.469648562300319428e-01,7.241746538871139671e-02,4.792332268370606829e-02,9.035971223021583398e+00,8.633093525179856564e-02,3.750599520383693264e+00
2.269289735066503333e+00,-1.437699680511182188e-01,8.732694355697551147e-02,4.685835995740149362e-02,8.985611510791366996e+00,5.035971223021582649e-02,3.832134292565947398e+00
2.274247607503534052e+00,-1.373801916932907430e-01,9.371671991480298725e-02,4.366347177848775574e-02,8.935251798561150594e+00,2.398081534772182263e-02,3.863309352517985573e+00
2.279205479940564327e+00,-1.288604898828540901e-01,9.158679446219382403e-02,4.259850905218317413e-02,8.923261390887290645e+00,-1.918465227817745672e-02,3.913669064748201532e+00
2.284163352377594602e+00,-1.203407880724174650e-01,8.626198083067092293e-02,4.153354632587859252e-02,8.904076738609113306e+00,-4.796163069544364527e-02,3.906474820143885029e+00
2.289121224814625322e+00,-1.139510117145899892e-01,8.306709265175718504e-02,3.833865814696485463e-02,8.908872901678657641e+00,-5.755395683453237710e-02,3.865707434052757741e+00
2.294079097251655597e+00,-1.054313099041533502e-01,8.306709265175718504e-02,3.407880724174654208e-02,8.937649880095923649e+00,-8.393285371702638442e-02,3.846522781774580402e+00
2.299036969688685872e+00,-9.584664536741213658e-02,8.413205537806177359e-02,2.662406815761448470e-02,8.952038369304556653e+00,-7.913669064748200810e-02,3.817745803357313950e+00
2.303994842125716591e+00,-9.052183173588924936e-02,8.732694355697551147e-02,2.129925452609158706e-02,8.961630695443645322e+00,-9.832134292565947176e-02,3.844124700239808234e+00
2.308952714562746866e+00,-8.732694355697551147e-02,9.052183173588924936e-02,1.916932907348242732e-02,8.947242206235012318e+00,-1.199040767386091166e-01,3.800959232613908778e+00
2.313910586999777141e+00,-8.413205537806177359e-02,9.371671991480298725e-02,1.597444089456868943e-02,8.935251798561150594e+00,-1.294964028776978415e-01,3.822541966426858728e+00
2.318868459436807861e+00,-7.987220447284344715e-02,9.797657082002129980e-02,6.389776357827475772e-03,8.956834532374100988e+00,-9.592326139088729053e-02,3.798561151079136611e+00
2.323826331873838136e+00,-8.306709265175718504e-02,1.054313099041533502e-01,-3.194888178913737886e-03,8.932853717026379314e+00,-1.438848920863309427e-02,3.865707434052757741e+00
2.328784204310868411e+00,-8.306709265175718504e-02,1.075612353567625135e-01,-3.194888178913737886e-03,8.836930455635490844e+00,4.076738609112710160e-02,3.848920863309352569e+00
2.333742076747899130e+00,-8.519701810436634826e-02,1.075612353567625135e-01,-1.064962726304579440e-03,8.815347721822542226e+00,2.158273381294964141e-02,3.858513189448441238e+00
2.338699949184929405e+00,-9.052183173588924936e-02,1.139510117145899892e-01,-5.324813631522896766e-03,8.812949640287769171e+00,-4.076738609112710160e-02,3.920863309352518034e+00
2.343657821621959680e+00,-9.371671991480298725e-02,1.160809371671991524e-01,-1.171458998935037341e-02,8.827338129496402175e+00,-7.194244604316546443e-02,4.038369304556354678e+00
2.348615694058990400e+00,-9.371671991480298725e-02,1.096911608093716767e-01,-1.703940362087327104e-02,8.760191846522781489e+00,-4.076738609112710160e-02,4.124700239808153590e+00
2.353573566496020675e+00,-9.265175718849839870e-02,9.797657082002129980e-02,-2.023429179978700893e-02,8.669064748201439130e+00,1.918465227817745672e-02,4.119904076738609255e+00
2.358531438933050950e+00,-8.945686900958466081e-02,8.626198083067092293e-02,-1.810436634717784918e-02,8.664268585131894795e+00,-1.678657074340527550e-02,4.076738609112710243e+00
2.363489311370081669e+00,-7.987220447284344715e-02,7.667731629392970927e-02,-1.810436634717784918e-02,8.729016786570744202e+00,-8.153477218225420320e-02,3.992805755395683498e+00
2.368447183807111944e+00,-7.774227902023429781e-02,7.561235356762513460e-02,-2.023429179978700893e-02,8.827338129496402175e+00,-1.870503597122302186e-01,3.899280575539568527e+00
2.373405056244142219e+00,-7.241746538871139671e-02,7.667731629392970927e-02,-3.088391906283280072e-02,8.942446043165467984e+00,-2.949640287769784153e-01,3.772182254196642770e+00
2.378362928681172939e+00,-6.602768903088392094e-02,8.945686900958466081e-02,-5.218317358892438779e-02,8.961630695443645322e+00,-3.405275779376498724e-01,3.752997601918465431e+00
2.383320801118203214e+00,-5.537806176783812567e-02,9.904153354632587447e-02,-7.454739084132055993e-02,8.812949640287769171e+00,-3.261390887290168128e-01,3.760191846522781933e+00
2.388278673555233489e+00,-3.727369542066027996e-02,1.022364217252396124e-01,-9.052183173588924936e-02,8.798561151079136167e+00,-2.829736211031175230e-01,3.546762589928057707e+00
2.393236545992263764e+00,-2.342917997870074681e-02,1.256656017039403661e-01,-9.797657082002129980e-02,9.119904076738608367e+00,-2.781774580335731328e-01,3.640287769784172678e+00
2.398194418429294483e+00,1.064962726304579440e-03,1.522896698615548439e-01,-9.691160809371672513e-02,9.119904076738608367e+00,-2.733812949640287981e-01,3.477218225419664410e+00
2.403152290866324758e+00,2.342917997870074681e-02,1.980830670926517489e-01,-1.033013844515442009e-01,9.076738609112709355e+00,-2.446043165467625957e-01,3.625899280575539674e+00
2.408110163303355034e+00,3.940362087326943624e-02,2.342917997870074542e-01,-1.118210862619808260e-01,8.949640287769783598e+00,-3.117505995203836977e-02,4.019184652278177339e+00
2.413068035740385753e+00,4.792332268370606829e-02,2.364217252396166036e-01,-1.075612353567625135e-01,8.748201438848921541e+00,1.438848920863309289e-01,4.350119904076738209e+00
2.418025908177416028e+00,5.111821086261980618e-02,2.140575079872204523e-01,-9.371671991480298725e-02,8.637889688249400066e+00,1.990407673860911386e-01,4.357314148681055599e+00
2.422983780614446303e+00,4.579339723109691201e-02,1.938232161874334503e-01,-8.839190628328008614e-02,8.640287769784173122e+00,1.750599520383692986e-01,4.321342925659472201e+00
2.427941653051477022e+00,3.727369542066027996e-02,1.842385516506922227e-01,-8.945686900958466081e-02,8.618705035971222728e+00,2.565947242206235157e-01,4.438848920863309289e+00
2.432899525488507297e+00,2.555910543130990309e-02,1.597444089456868943e-01,-8.519701810436634826e-02,8.616306954436451448e+00,3.453237410071942626e-01,4.582733812949640217e+00
2.437857397925537573e+00,1.171458998935037341e-02,1.309904153354632672e-01,-7.454739084132055993e-02,8.585131894484412385e+00,3.645083932853717124e-01,4.565947242206235046e+00
2.442815270362568292e+00,-7.454739084132055646e-03,1.086261980830670881e-01,-6.922257720979765883e-02,8.640287769784173122e+00,2.781774580335731328e-01,4.438848920863309289e+00
2.447773142799598567e+00,-2.768903088391906284e-02,8.945686900958466081e-02,-7.241746538871139671e-02,8.633093525179855732e+00,2.302158273381295084e-01,4.366906474820144268e+00
2.452731015236628842e+00,-4.685835995740149362e-02,7.348242811501597138e-02,-7.667731629392970927e-02,8.623501199040767062e+00,2.206235011990407557e-01,4.323741007194244368e+00
2.457688887673659561e+00,-6.176783812566560145e-02,6.176783812566560145e-02,-7.135250266240682204e-02,8.683453237410072134e+00,1.726618705035971313e-01,4.258992805755395850e+00
2.462646760110689836e+00,-6.815761448349308416e-02,5.324813631522896940e-02,-7.135250266240682204e-02,8.803357314148680501e+00,7.913669064748200810e-02,4.119904076738609255e+00
2.467604632547720112e+00,-7.561235356762513460e-02,5.644302449414270728e-02,-7.135250266240682204e-02,8.865707434052758629e+00,3.597122302158273222e-02,4.043165467625899012e+00
2.472562504984750831e+00,-7.880724174653887248e-02,6.709265175718849561e-02,-7.241746538871139671e-02,8.872901678657074243e+00,1.918465227817745672e-02,3.988009592326139163e+00
2.477520377421781106e+00,-8.306709265175718504e-02,7.348242811501597138e-02,-7.028753993610223350e-02,8.834532374100719565e+00,5.995203836930455832e-02,3.968824940047961825e+00
2.482478249858811381e+00,-8.945686900958466081e-02,8.093716719914803570e-02,-6.389776357827475772e-02,8.863309352517985573e+00,4.796163069544364180e-03,3.887290167865707247e+00
2.487436122295842100e+00,-9.691160809371672513e-02,9.052183173588924936e-02,-6.496272630457934627e-02,8.899280575539568972e+00,-1.678657074340527550e-02,3.839328537170263900e+00
2.492393994732872375e+00,-1.096911608093716767e-01,1.011714589989350377e-01,-7.454739084132055993e-02,8.913669064748201976e+00,-2.398081534772182263e-02,3.901678657074340695e+00
2.497351867169902651e+00,-1.192758253461128903e-01,1.107561235356762513e-01,-8.519701810436634826e-02,8.894484412470024637e+00,-1.678657074340527550e-02,3.961630695443644878e+00
2.502309739606933370e+00,-1.299254526091586925e-01,1.150159744408945639e-01,-9.265175718849839870e-02,8.848920863309352569e+00,3.836930455635491344e-02,4.033573141486810343e+00
2.507267612043963645e+00,-1.341853035143769912e-01,1.160809371671991524e-01,-9.478168264110756192e-02,8.824940047961630896e+00,7.194244604316546443e-02,4.103117505995204084e+00
2.512225484480993920e+00,-1.395101171458998923e-01,1.160809371671991524e-01,-9.584664536741213658e-02,8.822541966426857840e+00,6.954436450839328321e-02,4.151079136690647431e+00
2.517183356918024639e+00,-1.416400425985090417e-01,1.086261980830670881e-01,-1.001064962726304630e-01,8.817745803357313505e+00,8.393285371702638442e-02,4.119904076738609255e+00
2.522141229355054914e+00,-1.469648562300319428e-01,1.064962726304579388e-01,-1.022364217252396124e-01,8.856115107913668183e+00,4.556354916067146404e-02,4.093525179856115415e+00
2.527099101792085190e+00,-1.480298189563365174e-01,1.075612353567625135e-01,-1.054313099041533502e-01,8.923261390887290645e+00,2.637889688249400386e-02,4.124700239808153590e+00
2.532056974229115909e+00,-1.448349307774227934e-01,1.128860489882854146e-01,-1.054313099041533502e-01,8.913669064748201976e+00,2.877697841726618855e-02,4.175059952038369104e+00
2.537014846666146184e+00,-1.384451544195953177e-01,1.107561235356762513e-01,-1.086261980830670881e-01,8.928057553956834980e+00,4.796163069544364180e-03,4.213429256594723782e+00
2.541972719103176459e+00,-1.309904153354632672e-01,1.096911608093716767e-01,-1.118210862619808260e-01,8.906474820143884585e+00,2.637889688249400386e-02,4.230215827338129841e+00
2.546930591540207178e+00,-1.246006389776357776e-01,1.043663471778487756e-01,-1.139510117145899892e-01,8.863309352517985573e+00,1.199040767386091132e-02,4.223021582733813339e+00
2.551888463977237453e+00,-1.150159744408945639e-01,9.691160809371672513e-02,-1.160809371671991524e-01,8.887290167865707247e+00,0.000000000000000000e+00,4.177458033573141272e+00
2.556846336414267729e+00,-1.054313099041533502e-01,9.371671991480298725e-02,-1.214057507987220397e-01,8.944844124700239263e+00,-5.755395683453237710e-02,4.139088729016786594e+00
2.561804208851298448e+00,-9.158679446219382403e-02,9.052183173588924936e-02,-1.320553780617678419e-01,9.019184652278177339e+00,-1.175059952038369354e-01,4.055155875299759849e+00
2.566762081288328723e+00,-7.987220447284344715e-02,9.691160809371672513e-02,-1.448349307774227934e-01,9.007194244604317390e+00,-1.103117505995203779e-01,4.038369304556354678e+00
2.571719953725358998e+00,-6.922257720979765883e-02,1.033013844515442009e-01,-1.565495207667731703e-01,8.959232613908872267e+00,-2.877697841726618855e-02,4.076738609112710243e+00
2.576677826162389717e+00,-5.537806176783812567e-02,1.022364217252396124e-01,-1.640042598509052207e-01,8.918465227817746310e+00,2.877697841726618855e-02,4.110311750599520586e+00
2.581635698599419992e+00,-4.792332268370606829e-02,9.904153354632587447e-02,-1.746538871139510229e-01,8.913669064748201976e+00,8.153477218225420320e-02,4.134292565947242259e+00
2.586593571036450268e+00,-4.579339723109691201e-02,9.584664536741213658e-02,-1.831735889243876481e-01,8.940047961630694928e+00,1.918465227817745811e-01,4.117505995203837088e+00
2.591551443473480987e+00,-4.579339723109691201e-02,9.158679446219382403e-02,-1.906283280085196985e-01,8.889688249400480302e+00,3.261390887290168128e-01,4.143884892086330929e+00
2.596509315910511262e+00,-4.685835995740149362e-02,8.732694355697551147e-02,-1.948881789137380249e-01,8.918465227817746310e+00,4.052757793764987793e-01,4.158273381294963933e+00
2.601467188347541537e+00,-5.005324813631523151e-02,8.626198083067092293e-02,-1.948881789137380249e-01,8.947242206235012318e+00,4.796163069544364665e-01,4.129496402877697925e+00
2.606425060784572256e+00,-5.324813631522896940e-02,8.732694355697551147e-02,-1.916932907348242732e-01,8.944844124700239263e+00,5.419664268585131506e-01,4.117505995203837088e+00
2.611382933221602531e+00,-5.750798722044728195e-02,8.945686900958466081e-02,-1.821086261980830734e-01,8.937649880095923649e+00,5.995203836930456109e-01,4.155875299760191766e+00
2.616340805658632807e+00,-6.283280085197018305e-02,8.732694355697551147e-02,-1.671991480298189447e-01,8.966426858513189657e+00,6.330935251798560648e-01,4.153477218225419598e+00
2.621298678095663526e+00,-6.709265175718849561e-02,8.945686900958466081e-02,-1.512247071352502692e-01,9.007194244604317390e+00,6.402877697841726778e-01,4.124700239808153590e+00
2.626256550532693801e+00,-7.135250266240682204e-02,9.265175718849839870e-02,-1.331203407880724165e-01,9.011990407673861725e+00,6.306954436450838974e-01,4.057553956834532016e+00
2.631214422969724076e+00,-7.454739084132055993e-02,1.001064962726304630e-01,-1.171458998935037271e-01,9.004796163069544335e+00,5.923261390887289979e-01,4.009592326139088669e+00
2.636172295406754795e+00,-7.561235356762513460e-02,1.054313099041533502e-01,-1.022364217252396124e-01,8.988009592326138275e+00,5.467625899280575963e-01,3.988009592326139163e+00
2.641130167843785070e+00,-7.561235356762513460e-02,1.086261980830670881e-01,-8.945686900958466081e-02,9.000000000000000000e+00,5.107913669064748641e-01,3.988009592326139163e+00
2.646088040280815346e+00,-7.348242811501597138e-02,1.160809371671991524e-01,-8.306709265175718504e-02,8.961630695443645322e+00,4.892086330935251914e-01,3.983213429256594829e+00
2.651045912717846065e+00,-6.815761448349308416e-02,1.267305644302449408e-01,-7.561235356762513460e-02,8.961630695443645322e+00,5.035971223021582510e-01,3.976019184652278327e+00
2.656003785154876340e+00,-6.176783812566560145e-02,1.384451544195953177e-01,-6.496272630457934627e-02,8.935251798561150594e+00,5.203836930455635335e-01,4.035971223021582510e+00
2.660961657591906615e+00,-5.750798722044728195e-02,1.458998935037273681e-01,-5.431309904153354406e-02,8.889688249400480302e+00,5.227817745803357008e-01,4.117505995203837088e+00
2.665919530028937334e+00,-5.431309904153354406e-02,1.480298189563365174e-01,-4.579339723109691201e-02,8.875299760191847298e+00,5.155875299760191988e-01,4.148681055155875264e+00
2.670877402465967609e+00,-5.431309904153354406e-02,1.480298189563365174e-01,-4.153354632587859252e-02,8.853717026378896904e+00,5.299760191846523139e-01,4.172661870503596937e+00
2.675835274902997885e+00,-5.111821086261980618e-02,1.490947816826411199e-01,-3.833865814696485463e-02,8.805755395683453557e+00,5.923261390887289979e-01,4.242206235011990678e+00
2.680793147340028604e+00,-5.005324813631523151e-02,1.458998935037273681e-01,-3.088391906283280072e-02,8.776978417266187549e+00,6.498800959232613472e-01,4.314148681055155699e+00
2.685751019777058879e+00,-5.111821086261980618e-02,1.416400425985090417e-01,-1.916932907348242732e-02,8.788968824940047497e+00,6.426858513189448452e-01,4.378896882494005105e+00
2.690708892214089154e+00,-5.111821086261980618e-02,1.299254526091586925e-01,-7.454739084132055646e-03,8.820143884892086561e+00,5.875299760191846632e-01,4.402877697841726778e+00
2.695666764651119429e+00,-5.537806176783812567e-02,1.192758253461128903e-01,-3.194888178913737886e-03,8.848920863309352569e+00,5.491606714628297636e-01,4.371702637889688603e+00
2.700624637088150148e+00,-5.857294994675186356e-02,1.086261980830670881e-01,-1.064962726304579440e-03,8.827338129496402175e+00,5.827338129496403285e-01,4.338129496402877372e+00
2.705582509525180424e+00,-6.389776357827475772e-02,9.584664536741213658e-02,2.129925452609158880e-03,8.822541966426857840e+00,5.539568345323740983e-01,4.285371702637889690e+00
2.710540381962210699e+00,-7.241746538871139671e-02,8.839190628328008614e-02,6.389776357827475772e-03,8.904076738609113306e+00,4.460431654676259017e-01,4.254196642685851515e+00
2.715498254399241418e+00,-7.454739084132055993e-02,8.626198083067092293e-02,4.259850905218317760e-03,8.968824940047960936e+00,3.860911270983213295e-01,4.239808153477218511e+00
2.720456126836271693e+00,-7.561235356762513460e-02,7.880724174653887248e-02,-1.064962726304579440e-03,9.035971223021583398e+00,3.165467625899280324e-01,4.175059952038369104e+00
2.725413999273301968e+00,-7.774227902023429781e-02,7.987220447284344715e-02,-9.584664536741213658e-03,9.009592326139088669e+00,3.309352517985611475e-01,4.076738609112710243e+00
2.730371871710332687e+00,-7.667731629392970927e-02,8.945686900958466081e-02,-1.384451544195953142e-02,8.976019184652278327e+00,3.621103117505995450e-01,4.057553956834532016e+00
2.735329744147362963e+00,-6.815761448349308416e-02,9.904153354632587447e-02,-8.519701810436635520e-03,8.971223021582733992e+00,3.525179856115107646e-01,4.033573141486810343e+00
2.740287616584393238e+00,-6.070287539936101984e-02,1.043663471778487756e-01,-4.259850905218317760e-03,9.028776978417266008e+00,3.021582733812949728e-01,4.040767386091126845e+00
2.745245489021423957e+00,-5.431309904153354406e-02,1.171458998935037271e-01,-7.454739084132055646e-03,9.026378896882494729e+00,2.781774580335731328e-01,4.122302158273381423e+00
2.750203361458454232e+00,-4.898828541001064990e-02,1.288604898828540901e-01,-1.384451544195953142e-02,8.983213429256593940e+00,3.381294964028777050e-01,4.211031175059951615e+00
2.755161233895484507e+00,-3.940362087326943624e-02,1.309904153354632672e-01,-1.277955271565495154e-02,8.942446043165467984e+00,4.076738609112710021e-01,4.328537170263788703e+00
2.760119106332515226e+00,-2.662406815761448470e-02,1.341853035143769912e-01,-4.259850905218317760e-03,8.947242206235012318e+00,4.028776978417266119e-01,4.347721822541966041e+00
2.765076978769545502e+00,-1.597444089456868943e-02,1.341853035143769912e-01,0.000000000000000000e+00,8.966426858513189657e+00,3.932853717026378870e-01,4.453237410071942293e+00
2.770034851206575777e+00,-7.454739084132055646e-03,1.309904153354632672e-01,4.259850905218317760e-03,8.892086330935251581e+00,4.748201438848920763e-01,4.582733812949640217e+00
2.774992723643606496e+00,-5.324813631522896766e-03,1.203407880724174650e-01,1.064962726304579353e-02,8.820143884892086561e+00,5.491606714628297636e-01,4.637889688249400066e+00
2.779950596080636771e+00,-2.129925452609158880e-03,1.043663471778487756e-01,2.023429179978700893e-02,8.812949640287769171e+00,5.299760191846523139e-01,4.625899280575539230e+00
2.784908468517667046e+00,-3.194888178913737886e-03,8.945686900958466081e-02,2.875399361022364098e-02,8.822541966426857840e+00,4.868105515587530241e-01,4.642685851318944401e+00
2.789866340954697765e+00,-7.454739084132055646e-03,7.454739084132055993e-02,3.194888178913737886e-02,8.791366906474820553e+00,4.364508393285371768e-01,4.697841726618705138e+00
2.794824213391728041e+00,-5.324813631522896766e-03,5.537806176783812567e-02,3.514376996805111675e-02,8.784172661870503163e+00,4.508393285371702364e-01,4.659472422062350461e+00
2.799782085828758316e+00,-1.064962726304579353e-02,3.301384451544196047e-02,4.153354632587859252e-02,8.733812949640288537e+00,4.172661870503597270e-01,4.563549160671462879e+00
2.804739958265789035e+00,-1.384451544195953142e-02,2.129925452609158706e-02,4.366347177848775574e-02,8.769784172661870159e+00,4.052757793764987793e-01,4.496402877697841305e+00
2.809697830702819310e+00,-1.810436634717784918e-02,1.384451544195953142e-02,4.792332268370606829e-02,8.832134292565946510e+00,3.453237410071942626e-01,4.472422062350119631e+00
2.814655703139849585e+00,-2.129925452609158706e-02,6.389776357827475772e-03,5.005324813631523151e-02,8.918465227817746310e+00,2.613908872901678504e-01,4.374100719424460770e+00
2.819613575576880304e+00,-2.555910543130990309e-02,-2.129925452609158880e-03,5.005324813631523151e-02,9.004796163069544335e+00,2.541966426858512929e-01,4.177458033573141272e+00
2.824571448013910580e+00,-3.407880724174654208e-02,8.519701810436635520e-03,4.685835995740149362e-02,9.026378896882494729e+00,2.470023980815347631e-01,4.146282973621103096e+00
2.829529320450940855e+00,-3.620873269435569836e-02,2.449414270500532495e-02,4.153354632587859252e-02,9.014388489208633004e+00,2.517985611510791255e-01,4.158273381294963933e+00
2.834487192887971574e+00,-4.046858359957401785e-02,4.046858359957401785e-02,4.579339723109691201e-02,8.997601918465226944e+00,2.182254196642685884e-01,4.235011990407674176e+00
2.839445065325001849e+00,-4.472843450479233041e-02,4.792332268370606829e-02,4.259850905218317413e-02,9.026378896882494729e+00,1.270983213429256464e-01,4.273381294964028854e+00
2.844402937762032124e+00,-4.685835995740149362e-02,5.218317358892438779e-02,3.727369542066027996e-02,9.047961630695443347e+00,1.270983213429256464e-01,4.340527577937649539e+00
2.849360810199062843e+00,-4.579339723109691201e-02,5.218317358892438779e-02,2.662406815761448470e-02,8.952038369304556653e+00,2.302158273381295084e-01,4.453237410071942293e+00
2.854318682636093119e+00,-4.579339723109691201e-02,4.685835995740149362e-02,3.088391906283280072e-02,8.805755395683453557e+00,3.261390887290168128e-01,4.482014388489208301e+00
2.859276555073123394e+00,-5.218317358892438779e-02,3.727369542066027996e-02,4.259850905218317413e-02,8.791366906474820553e+00,2.973621103117505826e-01,4.494004796163069138e+00
2.864234427510154113e+00,-5.644302449414270728e-02,2.555910543130990309e-02,4.685835995740149362e-02,8.865707434052758629e+00,2.278177458033573133e-01,4.419664268585131950e+00
2.869192299947184388e+00,-6.709265175718849561e-02,1.703940362087327104e-02,4.472843450479233041e-02,8.913669064748201976e+00,1.654676258992805737e-01,4.448441247002397958e+00
2.874150172384214663e+00,-7.135250266240682204e-02,7.454739084132055646e-03,4.046858359957401785e-02,8.870503597122302963e+00,1.510791366906474864e-01,4.395683453237410276e+00
2.879108044821245382e+00,-7.454739084132055993e-02,1.064962726304579440e-03,4.153354632587859252e-02,8.868105515587529908e+00,1.103117505995203779e-01,4.316546762589927866e+00
2.884065917258275658e+00,-7.348242811501597138e-02,1.064962726304579440e-03,4.366347177848775574e-02,8.904076738609113306e+00,-9.592326139088728360e-03,4.177458033573141272e+00
2.889023789695305933e+00,-7.348242811501597138e-02,1.171458998935037341e-02,3.833865814696485463e-02,9.004796163069544335e+00,-8.872901678657074687e-02,4.091127098321343247e+00
2.893981662132336652e+00,-7.135250266240682204e-02,2.875399361022364098e-02,2.875399361022364098e-02,9.033573141486810343e+00,-1.079136690647481966e-01,4.141486810551558762e+00
2.898939534569366927e+00,-7.135250266240682204e-02,4.259850905218317413e-02,1.703940362087327104e-02,8.990407673860911331e+00,-9.352517985611510931e-02,4.249400479616307180e+00
2.903897407006397202e+00,-7.561235356762513460e-02,5.324813631522896940e-02,1.064962726304579353e-02,8.932853717026379314e+00,-2.158273381294964141e-02,4.323741007194244368e+00
2.908855279443427921e+00,-7.561235356762513460e-02,6.283280085197018305e-02,2.129925452609158880e-03,8.925659472422061924e+00,-2.398081534772182090e-03,4.359712230215827766e+00
2.913813151880458197e+00,-7.880724174653887248e-02,6.496272630457934627e-02,-7.454739084132055646e-03,8.892086330935251581e+00,4.796163069544364180e-03,4.520383693045563867e+00
2.918771024317488472e+00,-8.519701810436634826e-02,6.283280085197018305e-02,-1.597444089456868943e-02,8.892086330935251581e+00,5.275779376498800771e-02,4.575539568345323715e+00
2.923728896754519191e+00,-9.478168264110756192e-02,5.644302449414270728e-02,-2.236421725239616520e-02,8.906474820143884585e+00,4.316546762589928282e-02,4.676258992805755632e+00
2.928686769191549466e+00,-1.001064962726304630e-01,4.685835995740149362e-02,-2.981895633652822258e-02,8.846522781774579514e+00,5.755395683453237710e-02,4.769784172661870159e+00
2.933644641628579741e+00,-1.054313099041533502e-01,3.088391906283280072e-02,-3.727369542066027996e-02,8.829736211031175230e+00,7.434052757793764565e-02,4.800959232613909222e+00
2.938602514065610460e+00,-1.118210862619808260e-01,1.597444089456868943e-02,-4.259850905218317413e-02,8.793764988009591832e+00,9.112709832134292809e-02,4.841726618705036067e+00
2.943560386502640736e+00,-1.107561235356762513e-01,-5.324813631522896766e-03,-4.685835995740149362e-02,8.743405275779377206e+00,4.796163069544364527e-02,4.774580335731414493e+00
2.948518258939671011e+00,-1.160809371671991524e-01,-2.449414270500532495e-02,-5.218317358892438779e-02,8.736211031175059816e+00,-1.918465227817745672e-02,4.741007194244604150e+00
2.953476131376701730e+00,-1.139510117145899892e-01,-3.407880724174654208e-02,-5.963791267305644517e-02,8.764988009592325824e+00,-9.352517985611510931e-02,4.673860911270983465e+00
2.958434003813732005e+00,-1.086261980830670881e-01,-4.685835995740149362e-02,-6.815761448349308416e-02,8.779376498800958828e+00,-1.726618705035971313e-01,4.604316546762589724e+00
2.963391876250762280e+00,-9.691160809371672513e-02,-5.537806176783812567e-02,-7.774227902023429781e-02,8.779376498800958828e+00,-2.230215827338129508e-01,4.400479616306954611e+00
2.968349748687792999e+00,-8.626198083067092293e-02,-5.324813631522896940e-02,-8.839190628328008614e-02,8.829736211031175230e+00,-2.278177458033573133e-01,4.230215827338129841e+00
2.973307621124823275e+00,-6.709265175718849561e-02,-3.833865814696485463e-02,-9.904153354632587447e-02,8.880095923261391633e+00,-1.918465227817745811e-01,4.213429256594723782e+00
2.978265493561853550e+00,-5.324813631522896940e-02,-1.916932907348242732e-02,-1.075612353567625135e-01,8.875299760191847298e+00,-7.913669064748200810e-02,4.235011990407674176e+00
2.983223365998884269e+00,-3.940362087326943624e-02,-3.194888178913737886e-03,-1.128860489882854146e-01,8.815347721822542226e+00,-6.235011990407673954e-02,4.335731414868105205e+00
2.988181238435914544e+00,-2.662406815761448470e-02,5.324813631522896766e-03,-1.171458998935037271e-01,8.810551558752997892e+00,-4.076738609112710160e-02,4.335731414868105205e+00
2.993139110872944819e+00,-2.023429179978700893e-02,1.277955271565495154e-02,-1.203407880724174650e-01,8.786570743405276218e+00,5.515587529976018893e-02,4.419664268585131950e+00
2.998096983309975538e+00,-1.384451544195953142e-02,1.703940362087327104e-02,-1.235356762513312029e-01,8.719424460431655532e+00,1.678657074340527688e-01,4.446043165467625791e+00
3.003054855747005814e+00,-1.277955271565495154e-02,2.342917997870074681e-02,-1.203407880724174650e-01,8.745803357314148485e+00,2.517985611510791255e-01,4.561151079136690711e+00
3.008012728184036089e+00,-1.171458998935037341e-02,2.555910543130990309e-02,-1.139510117145899892e-01,8.750599520383692820e+00,2.901678657074340251e-01,4.633093525179855732e+00
3.012970600621066808e+00,-2.023429179978700893e-02,2.236421725239616520e-02,-1.086261980830670881e-01,8.738609112709832871e+00,3.405275779376498724e-01,4.705035971223021640e+00
3.017928473058097083e+00,-3.301384451544196047e-02,1.490947816826411129e-02,-1.033013844515442009e-01,8.621103117505995783e+00,4.388489208633093441e-01,4.834532374100719565e+00
3.022886345495127358e+00,-4.579339723109691201e-02,2.129925452609158880e-03,-9.584664536741213658e-02,8.549160671462828986e+00,5.323741007194244812e-01,4.875299760191846410e+00
3.027844217932157633e+00,-6.389776357827475772e-02,-1.490947816826411129e-02,-8.093716719914803570e-02,8.544364508393284652e+00,5.803357314148680501e-01,4.906474820143884585e+00
3.032802090369188353e+00,-8.093716719914803570e-02,-3.407880724174654208e-02,-6.602768903088392094e-02,8.553956834532373321e+00,5.227817745803357008e-01,4.836930455635491732e+00
3.037759962806218628e+00,-1.043663471778487756e-01,-4.898828541001064990e-02,-5.537806176783812567e-02,8.587529976019185440e+00,4.628297362110311841e-01,4.776978417266186661e+00
3.042717835243248903e+00,-1.246006389776357776e-01,-6.176783812566560145e-02,-4.792332268370606829e-02,8.637889688249400066e+00,4.412470023980815115e-01,4.707434052757793808e+00
3.047675707680279622e+00,-1.437699680511182188e-01,-6.815761448349308416e-02,-3.727369542066027996e-02,8.659472422062350461e+00,3.573141486810551548e-01,4.597122302158273222e+00
3.052633580117309897e+00,-1.554845580404685956e-01,-6.922257720979765883e-02,-2.768903088391906284e-02,8.705035971223020752e+00,2.997601918465228055e-01,4.458033573141486627e+00
3.057591452554340172e+00,-1.640042598509052207e-01,-5.963791267305644517e-02,-2.342917997870074681e-02,8.752997601918465875e+00,2.541966426858512929e-01,4.342925659472421707e+00
3.062549324991370892e+00,-1.746538871139510229e-01,-4.792332268370606829e-02,-1.810436634717784918e-02,8.741007194244604150e+00,2.350119904076738708e-01,4.338129496402877372e+00
3.067507197428401167e+00,-1.789137380191693216e-01,-3.620873269435569836e-02,-1.171458998935037341e-02,8.781774580335731883e+00,1.486810551558752913e-01,4.263788968824940184e+00
3.072465069865431442e+00,-1.831735889243876481e-01,-2.342917997870074681e-02,-1.384451544195953142e-02,8.848920863309352569e+00,6.474820143884892076e-02,4.290167865707434025e+00
3.077422942302462161e+00,-1.831735889243876481e-01,-7.454739084132055646e-03,-2.023429179978700893e-02,8.767386091127098879e+00,2.398081534772182263e-02,4.381294964028777272e+00
3.082380814739492436e+00,-1.789137380191693216e-01,1.064962726304579440e-03,-2.555910543130990309e-02,8.685851318944843413e+00,1.438848920863309427e-02,4.479616306954436133e+00
3.087338687176522711e+00,-1.725239616613418459e-01,0.000000000000000000e+00,-3.194888178913737886e-02,8.647482014388488736e+00,7.194244604316547137e-03,4.549160671462829875e+00
3.092296559613553431e+00,-1.618743343982960714e-01,0.000000000000000000e+00,-3.514376996805111675e-02,8.654676258992806126e+00,-1.438848920863309427e-02,4.618705035971222728e+00
3.097254432050583706e+00,-1.512247071352502692e-01,-2.129925452609158880e-03,-4.046858359957401785e-02,8.623501199040767062e+00,-9.592326139088728360e-03,4.717026378896882477e+00
3.102212304487613981e+00,-1.405750798722044670e-01,-7.454739084132055646e-03,-4.685835995740149362e-02,8.577937649880096771e+00,4.796163069544364527e-02,4.800959232613909222e+00
3.107170176924644700e+00,-1.299254526091586925e-01,-2.023429179978700893e-02,-4.685835995740149362e-02,8.486810551558752636e+00,1.103117505995203779e-01,4.896882494004795916e+00
3.112128049361674975e+00,-1.214057507987220397e-01,-3.514376996805111675e-02,-4.259850905218317413e-02,8.436450839328538009e+00,1.438848920863309289e-01,4.815347721822542226e+00
3.117085921798705250e+00,-1.160809371671991524e-01,-4.792332268370606829e-02,-4.046858359957401785e-02,8.441247002398082344e+00,1.750599520383692986e-01,4.836930455635491732e+00
3.122043794235735970e+00,-1.128860489882854146e-01,-6.283280085197018305e-02,-4.046858359957401785e-02,8.479616306954437022e+00,1.798561151079136611e-01,4.810551558752997892e+00
3.127001666672766245e+00,-1.118210862619808260e-01,-8.413205537806177359e-02,-3.514376996805111675e-02,8.498800959232614360e+00,1.726618705035971313e-01,4.676258992805755632e+00
3.131959539109796520e+00,-1.160809371671991524e-01,-9.478168264110756192e-02,-3.514376996805111675e-02,8.549160671462828986e+00,1.918465227817745811e-01,4.570743405275779381e+00
3.136917411546827239e+00,-1.171458998935037271e-01,-9.691160809371672513e-02,-3.407880724174654208e-02,8.657074340527577405e+00,1.702637889688249362e-01,4.333333333333333037e+00
3.141875283983857514e+00,-1.214057507987220397e-01,-8.413205537806177359e-02,-3.301384451544196047e-02,8.760191846522781489e+00,1.079136690647481966e-01,4.220623501199041172e+00
3.146833156420887789e+00,-1.277955271565495154e-01,-6.389776357827475772e-02,-3.407880724174654208e-02,8.908872901678657641e+00,1.438848920863309427e-02,4.148681055155875264e+00
3.151791028857918509e+00,-1.373801916932907430e-01,-4.366347177848775574e-02,-4.579339723109691201e-02,9.489208633093525691e+00,7.673860911270982688e-02,3.496402877697841749e+00
3.156748901294948784e+00,-2.002129925452609260e-01,-1.064962726304579353e-02,-7.028753993610223350e-02,8.064748201438849406e+00,7.937649880095922761e-01,2.752997601918465431e+00
3.161706773731979059e+00,-2.279020234291799785e-01,1.011714589989350377e-01,-4.259850905218317760e-03,7.513189448441247364e+00,7.314148681055155921e-01,3.522781774580335590e+00
3.166664646169009778e+00,-1.863684771033013721e-01,1.874334398296059745e-01,7.774227902023429781e-02,8.788968824940047497e+00,-2.374100719424460382e-01,4.988009592326139163e+00
3.171622518606040053e+00,-1.799787007454738963e-01,1.331203407880724165e-01,5.537806176783812567e-02,9.443645083932853623e+00,-9.424460431654676507e-01,6.374100719424460770e+00
3.176580391043070328e+00,-1.277955271565495154e-01,3.301384451544196047e-02,-2.768903088391906284e-02,9.021582733812950394e+00,-5.731414868105515481e-01,5.884892086330935079e+00
3.181538263480101048e+00,-1.650692225772097954e-01,-8.200212992545261037e-02,-9.797657082002129980e-02,8.028776978417266008e+00,3.045563549160671402e-01,4.256594724220623682e+00
3.186496135917131323e+00,-2.108626198083067005e-01,-8.306709265175718504e-02,-9.052183173588924936e-02,7.779376498800958828e+00,6.714628297362110754e-01,4.141486810551558762e+00
3.191454008354161598e+00,-1.501597444089456945e-01,1.916932907348242732e-02,-2.555910543130990309e-02,8.196642685851319499e+00,6.522781774580336256e-01,3.920863309352518034e+00
3.196411880791192317e+00,-1.746538871139510229e-01,5.857294994675186356e-02,3.407880724174654208e-02,9.213429256594723782e+00,-3.381294964028777050e-01,5.366906474820144268e+00
3.201369753228222592e+00,-1.533546325878594185e-01,-2.129925452609158880e-03,-1.384451544195953142e-02,9.218225419664268117e+00,-6.906474820143885252e-01,5.107913669064748419e+00
3.206327625665252867e+00,-1.661341853035143701e-01,-4.685835995740149362e-02,-9.052183173588924936e-02,8.736211031175059816e+00,-2.997601918465228055e-01,5.321342925659472201e+00
3.211285498102283587e+00,-1.214057507987220397e-01,-7.135250266240682204e-02,-1.171458998935037271e-01,8.076738609112709355e+00,4.964028776978417490e-01,4.172661870503596937e+00
3.216243370539313862e+00,-1.554845580404685956e-01,-7.241746538871139671e-02,-6.602768903088392094e-02,8.282973621103117523e+00,3.549160671462829875e-01,4.438848920863309289e+00
3.221201242976344137e+00,-1.139510117145899892e-01,-4.685835995740149362e-02,-2.981895633652822258e-02,8.541966426858513373e+00,-1.079136690647481966e-01,4.148681055155875264e+00
3.226159115413374856e+00,-9.797657082002129980e-02,0.000000000000000000e+00,-2.981895633652822258e-02,9.223021582733812451e+00,-5.635491606714628787e-01,4.846522781774580402e+00
3.231116987850405131e+00,-9.052183173588924936e-02,-3.620873269435569836e-02,-8.200212992545261037e-02,9.131894484412470092e+00,-4.820143884892086339e-01,5.000000000000000000e+00
3.236074860287435406e+00,-8.945686900958466081e-02,-8.839190628328008614e-02,-1.352502662406815659e-01,8.546762589928057707e+00,3.836930455635491344e-02,4.244604316546762846e+00
3.241032732724466126e+00,-1.054313099041533502e-01,-7.561235356762513460e-02,-1.373801916932907430e-01,8.323741007194245256e+00,3.333333333333333148e-01,4.105515587529976251e+00
3.245990605161496401e+00,-7.348242811501597138e-02,-1.597444089456868943e-02,-1.054313099041533502e-01,8.472422062350119631e+00,3.189448441247002553e-01,3.796163069544364443e+00
3.250948477598526676e+00,-9.265175718849839870e-02,2.129925452609158706e-02,-8.093716719914803570e-02,8.860911270983214294e+00,-1.366906474820143991e-01,4.630695443645083564e+00
3.255906350035557395e+00,-8.200212992545261037e-02,9.584664536741213658e-03,-1.075612353567625135e-01,9.026378896882494729e+00,-2.206235011990407557e-01,4.776978417266186661e+00
3.260864222472587670e+00,-1.107561235356762513e-01,-2.342917997870074681e-02,-1.480298189563365174e-01,8.752997601918465875e+00,1.223021582733812979e-01,4.824940047961630896e+00
3.265822094909617945e+00,-1.150159744408945639e-01,-4.259850905218317413e-02,-1.608093716719914690e-01,8.354916067146282543e+00,5.755395683453237154e-01,4.429256594724220619e+00
3.270779967346648665e+00,-1.235356762513312029e-01,-2.236421725239616520e-02,-1.299254526091586925e-01,8.436450839328538009e+00,6.642685851318944623e-01,4.134292565947242259e+00
3.275737839783678940e+00,-1.544195953141639932e-01,0.000000000000000000e+00,-9.797657082002129980e-02,8.625899280575540118e+00,4.460431654676259017e-01,4.474820143884891799e+00
3.280695712220709215e+00,-1.682641107561235472e-01,6.389776357827475772e-03,-9.478168264110756192e-02,8.769784172661870159e+00,3.357314148681055377e-01,4.664268585131894795e+00
3.285653584657739934e+00,-1.874334398296059745e-01,-2.342917997870074681e-02,-9.052183173588924936e-02,8.441247002398082344e+00,2.350119904076738708e-01,5.522781774580336034e+00
3.290611457094770209e+00,-6.176783812566560145e-02,-6.815761448349308416e-02,-6.176783812566560145e-02,8.508393285371703030e+00,1.127098321342925591e-01,4.836930455635491732e+00
3.295569329531800484e+00,-1.384451544195953142e-02,-7.880724174653887248e-02,-7.774227902023429781e-02,9.153477218225420486e+00,1.055155875299760154e-01,4.007194244604316502e+00
3.300527201968831204e+00,-5.431309904153354406e-02,-6.389776357827475772e-02,-1.405750798722044670e-01,8.805755395683453557e+00,6.139088729016786150e-01,4.978417266187050494e+00
3.305485074405861479e+00,-8.519701810436635520e-03,-5.963791267305644517e-02,-1.267305644302449408e-01,8.201438848920863833e+00,1.119904076738609033e+00,3.757793764988009766e+00
3.310442946842891754e+00,-9.904153354632587447e-02,-5.537806176783812567e-02,-5.963791267305644517e-02,8.738609112709832871e+00,4.244604316546762846e-01,4.458033573141486627e+00
3.315400819279922473e+00,-7.454739084132055993e-02,-3.940362087326943624e-02,-5.857294994675186356e-02,8.947242206235012318e+00,9.112709832134292809e-02,3.971223021582733992e+00
3.320358691716952748e+00,-1.118210862619808260e-01,-2.555910543130990309e-02,-9.904153354632587447e-02,8.851318944844123848e+00,2.925659472422062479e-01,4.347721822541966041e+00
3.325316564153983023e+00,-1.267305644302449408e-01,-3.194888178913737886e-02,-1.128860489882854146e-01,8.645083932853717457e+00,6.235011990407673954e-01,4.645083932853717457e+00
3.330274436591013298e+00,-1.246006389776357776e-01,-4.259850905218317413e-02,-8.519701810436634826e-02,8.546762589928057707e+00,6.187050359712230607e-01,4.009592326139088669e+00
3.335232309028044018e+00,-1.522896698615548439e-01,-2.449414270500532495e-02,-7.135250266240682204e-02,8.860911270983214294e+00,2.302158273381295084e-01,4.153477218225419598e+00
3.340190181465074293e+00,-1.554845580404685956e-01,-3.194888178913737886e-03,-1.054313099041533502e-01,8.841726618705035179e+00,3.117505995203836977e-01,3.995203836930455665e+00
3.345148053902104568e+00,-1.831735889243876481e-01,1.490947816826411129e-02,-1.214057507987220397e-01,8.642685851318944401e+00,5.083932853717025857e-01,4.911270983213428920e+00
3.350105926339135287e+00,-1.448349307774227934e-01,-2.129925452609158880e-03,-1.033013844515442009e-01,8.621103117505995783e+00,5.827338129496403285e-01,4.522781774580336034e+00
