t,gx,gy,gz,ax,ay,az
-9.905895543521271891e-04,-4.685835995740149362e-02,-3.301384451544196047e-02,1.001064962726304630e-01,8.796163069544364888e+00,4.412470023980815115e-01,4.242206235011990678e+00
3.966149741282310251e-03,-5.111821086261980618e-02,-3.407880724174654208e-02,1.118210862619808260e-01,8.896882494004795916e+00,2.326139088729016757e-01,4.093525179856115415e+00
8.922889036916748992e-03,-5.857294994675186356e-02,-2.662406815761448470e-02,1.033013844515442009e-01,8.908872901678657641e+00,1.294964028776978415e-01,4.170263788968824770e+00
1.387962833255118600e-02,-5.218317358892438779e-02,-2.768903088391906284e-02,9.371671991480298725e-02,8.877697841726618577e+00,7.194244604316546443e-02,4.230215827338129841e+00
1.883636762818562474e-02,-4.898828541001064990e-02,-3.301384451544196047e-02,8.945686900958466081e-02,8.923261390887290645e+00,4.076738609112710160e-02,4.110311750599520586e+00
2.379310692382006348e-02,-5.111821086261980618e-02,-2.981895633652822258e-02,7.987220447284344715e-02,9.011990407673861725e+00,9.592326139088728360e-03,4.098321342925659749e+00
2.874984621945449875e-02,-5.111821086261980618e-02,-2.236421725239616520e-02,7.135250266240682204e-02,9.028776978417266008e+00,-2.398081534772182090e-03,4.093525179856115415e+00
3.370658551508894096e-02,-5.324813631522896940e-02,-2.342917997870074681e-02,6.815761448349308416e-02,9.441247002398082344e+00,-9.592326139088729053e-02,4.309352517985611364e+00
3.866332481072337623e-02,-3.940362087326943624e-02,-4.792332268370606829e-02,7.348242811501597138e-02,9.390887290167865942e+00,-2.158273381294963933e-01,3.992805755395683498e+00
4.362006410635781151e-02,-1.916932907348242732e-02,-5.750798722044728195e-02,7.135250266240682204e-02,9.052757793764987682e+00,-3.549160671462829875e-01,3.273381294964028854e+00
4.857680340199225372e-02,-1.064962726304579353e-02,-1.384451544195953142e-02,4.046858359957401785e-02,8.877697841726618577e+00,-3.069544364508393075e-01,2.788968824940047941e+00
5.353354269762668899e-02,-2.449414270500532495e-02,5.431309904153354406e-02,1.064962726304579440e-03,8.729016786570744202e+00,-2.110311750599520308e-01,3.110311750599520586e+00
5.849028199326112426e-02,-1.384451544195953142e-02,1.150159744408945639e-01,-8.519701810436635520e-03,8.954436450839327932e+00,-2.206235011990407557e-01,3.654676258992805682e+00
6.344702128889555259e-02,-2.129925452609158880e-03,1.299254526091586925e-01,-5.324813631522896766e-03,9.335731414868105205e+00,-4.316546762589927866e-01,4.141486810551558762e+00
6.840376058453000174e-02,4.259850905218317760e-03,1.182108626198083018e-01,-2.129925452609158706e-02,9.460431654676259683e+00,-4.676258992805755188e-01,4.695443645083932971e+00
7.336049988016443701e-02,1.916932907348242732e-02,8.839190628328008614e-02,-4.472843450479233041e-02,8.824940047961630896e+00,-1.942446043165467762e-01,4.971223021582733992e+00
7.831723917579887229e-02,2.875399361022364098e-02,3.301384451544196047e-02,-3.833865814696485463e-02,8.527577937649880369e+00,-1.822541966426858562e-01,4.810551558752997892e+00
8.327397847143330756e-02,4.259850905218317413e-02,1.171458998935037341e-02,-4.685835995740149362e-02,8.482014388489208301e+00,-2.973621103117505826e-01,4.110311750599520586e+00
8.823071776706774283e-02,1.277955271565495154e-02,3.940362087326943624e-02,-8.519701810436634826e-02,8.326139088729016535e+00,-1.678657074340527688e-01,4.467625899280575297e+00
9.318745706270219198e-02,7.454739084132055646e-03,4.579339723109691201e-02,-1.107561235356762513e-01,8.381294964028777272e+00,1.199040767386091166e-01,4.872901678657074243e+00
9.814419635833662725e-02,-1.064962726304579440e-03,9.584664536741213658e-03,-1.107561235356762513e-01,8.760191846522781489e+00,1.151079136690647542e-01,5.064748201438848518e+00
1.031009356539710625e-01,-5.324813631522896766e-03,-4.046858359957401785e-02,-1.192758253461128903e-01,9.057553956834532016e+00,2.398081534772182263e-02,4.786570743405276218e+00
1.080576749496054978e-01,-8.519701810436635520e-03,-7.880724174653887248e-02,-1.363152289669861683e-01,9.033573141486810343e+00,1.534772182254196538e-01,4.326139088729016535e+00
1.130144142452399331e-01,4.259850905218317760e-03,-7.880724174653887248e-02,-1.405750798722044670e-01,8.597122302158274110e+00,4.460431654676259017e-01,4.093525179856115415e+00
1.179711535408743683e-01,4.046858359957401785e-02,-4.579339723109691201e-02,-1.235356762513312029e-01,8.482014388489208301e+00,6.067146282973621130e-01,3.848920863309352569e+00
1.229278928365088175e-01,2.768903088391906284e-02,-1.916932907348242732e-02,-1.256656017039403661e-01,8.841726618705035179e+00,7.098321342925659749e-01,3.721822541966426812e+00
1.278846321321432389e-01,-4.685835995740149362e-02,-1.490947816826411129e-02,-1.874334398296059745e-01,9.386091127098321607e+00,9.400479616306954833e-01,3.779376498800959272e+00
1.328413714277776880e-01,-1.384451544195953177e-01,-7.454739084132055646e-03,-2.268370607028754038e-01,9.211031175059952503e+00,1.661870503597122406e+00,4.431654676258992787e+00
1.377981107234121372e-01,-1.831735889243876481e-01,-3.833865814696485463e-02,-1.341853035143769912e-01,8.846522781774579514e+00,2.143884892086330929e+00,4.544364508393285540e+00
1.427548500190465586e-01,-1.991480298189563236e-01,-7.454739084132055993e-02,3.301384451544196047e-02,8.997601918465226944e+00,1.316546762589928088e+00,3.973621103117506159e+00
1.477115893146810077e-01,-1.906283280085196985e-01,-5.431309904153354406e-02,9.052183173588924936e-02,9.047961630695443347e+00,8.633093525179856564e-02,3.187050359712230385e+00
1.526683286103154291e-01,-2.140575079872204523e-01,-4.259850905218317760e-03,-1.064962726304579440e-03,9.134292565947241371e+00,-4.220623501199040617e-01,3.299760191846522694e+00
1.576250679059498783e-01,-2.342917997870074542e-01,3.514376996805111675e-02,-1.309904153354632672e-01,8.932853717026379314e+00,7.673860911270982688e-02,3.786570743405275774e+00
1.625818072015843274e-01,-2.332268370607028796e-01,3.620873269435569836e-02,-1.725239616613418459e-01,8.788968824940047497e+00,7.482014388489208745e-01,4.211031175059951615e+00
1.675385464972187488e-01,-1.895633652822151238e-01,4.366347177848775574e-02,-1.054313099041533502e-01,9.038369304556354678e+00,8.681055155875300189e-01,4.398081534772182444e+00
1.724952857928531980e-01,-1.448349307774227934e-01,4.898828541001064990e-02,-5.324813631522896766e-03,8.928057553956834980e+00,4.796163069544364665e-01,4.575539568345323715e+00
1.774520250884876194e-01,-1.139510117145899892e-01,1.916932907348242732e-02,4.472843450479233041e-02,8.908872901678657641e+00,-1.175059952038369354e-01,4.537170263788969038e+00
1.824087643841220685e-01,-8.200212992545261037e-02,-7.454739084132055646e-03,2.236421725239616520e-02,8.673860911270983465e+00,-3.357314148681055377e-01,4.110311750599520586e+00
1.873655036797565177e-01,-5.111821086261980618e-02,1.384451544195953142e-02,-2.875399361022364098e-02,8.599520383693045389e+00,-2.398081534772182333e-01,4.280575539568345356e+00
1.923222429753909390e-01,-4.259850905218317760e-03,3.833865814696485463e-02,-6.283280085197018305e-02,8.613908872901678393e+00,7.434052757793764565e-02,4.419664268585131950e+00
1.972789822710253882e-01,-2.129925452609158880e-03,2.555910543130990309e-02,-6.283280085197018305e-02,9.083932853717026745e+00,3.597122302158273222e-01,4.597122302158273222e+00
2.022357215666598096e-01,-2.555910543130990309e-02,-2.768903088391906284e-02,-5.324813631522896766e-03,9.107913669064748419e+00,9.112709832134292809e-02,4.570743405275779381e+00
2.071924608622942587e-01,6.389776357827475772e-03,-4.259850905218317413e-02,2.662406815761448470e-02,9.170263788968824770e+00,-4.604316546762590168e-01,3.570743405275779381e+00
2.121492001579287079e-01,-1.384451544195953142e-02,0.000000000000000000e+00,-4.046858359957401785e-02,8.616306954436451448e+00,-5.131894484412470314e-01,4.026378896882493841e+00
2.171059394535631293e-01,1.064962726304579353e-02,7.454739084132055646e-03,-1.182108626198083018e-01,8.611510791366907114e+00,6.235011990407673954e-02,4.014388489208633004e+00
2.220626787491975784e-01,-4.259850905218317760e-03,2.342917997870074681e-02,-1.618743343982960714e-01,8.470023980815348352e+00,8.561151079136690711e-01,4.153477218225419598e+00
2.270194180448319998e-01,-4.366347177848775574e-02,2.129925452609158880e-03,-1.395101171458998923e-01,9.551558752997602042e+00,9.616306954436451004e-01,4.458033573141486627e+00
2.319761573404664490e-01,-7.241746538871139671e-02,-4.792332268370606829e-02,-1.086261980830670881e-01,9.611510791366907114e+00,8.057553956834532238e-01,3.268585131894484519e+00
2.369328966361008704e-01,-1.448349307774227934e-01,-2.129925452609158706e-02,-9.478168264110756192e-02,9.393285371702637221e+00,7.410071942446042614e-01,3.577937649880095883e+00
2.418896359317353195e-01,-1.458998935037273681e-01,3.514376996805111675e-02,-9.265175718849839870e-02,8.033573141486810343e+00,1.292565947242206192e+00,3.434052757793764954e+00
2.468463752273697687e-01,-1.725239616613418459e-01,8.093716719914803570e-02,-3.088391906283280072e-02,7.923261390887289757e+00,1.112709832134292531e+00,4.743405275779376318e+00
2.518031145230042456e-01,-1.277955271565495154e-01,6.176783812566560145e-02,1.277955271565495154e-02,9.685851318944843413e+00,4.340527577937650094e-01,4.280575539568345356e+00
2.567598538186386392e-01,-1.693290734824281218e-01,7.454739084132055646e-03,-9.371671991480298725e-02,1.289448441247002464e+01,6.378896882494005105e-01,4.194244604316546443e+00
2.617165931142730884e-01,-2.012779552715655007e-01,-1.001064962726304630e-01,-3.003194888178913891e-01,1.081055155875299789e+01,4.057553956834532016e+00,2.678657074340527799e+00
2.666733324099075375e-01,-2.534611288604898816e-01,-1.884984025559105492e-01,-1.224707135250266282e-01,7.568345323741007213e+00,6.131894484412470092e+00,1.047961630695443569e+00
2.716300717055419867e-01,-1.565495207667731703e-01,-1.490947816826411129e-02,3.833865814696485463e-01,6.760191846522781489e+00,3.561151079136690711e+00,-1.582733812949640217e+00
2.765868110011764358e-01,-1.299254526091586925e-01,3.067092651757188371e-01,5.974440894568689986e-01,8.378896882494004217e+00,4.964028776978417490e-01,6.019184652278177783e-01
2.815435502968108294e-01,-8.945686900958466081e-02,4.100106496272630241e-01,4.462193823216187294e-01,1.045323741007194229e+01,-1.103117505995203779e-01,3.359712230215827322e+00
2.865002895924452786e-01,-1.171458998935037271e-01,3.471778487752928410e-01,2.768903088391906353e-01,9.688249400479616469e+00,6.762589928057554101e-01,5.297362110311750527e+00
2.914570288880797277e-01,-6.389776357827475772e-02,3.567625133120340686e-01,2.928647497337593109e-01,8.074340527577938076e+00,1.117505995203836866e+00,7.345323741007193874e+00
2.964137681837141769e-01,1.703940362087327104e-02,3.258785942492012921e-01,4.110756123535675988e-01,6.920863309352517589e+00,3.884892086330935523e-01,8.618705035971222728e+00
3.013705074793486260e-01,-3.301384451544196047e-02,8.945686900958466081e-02,4.675186368477103338e-01,7.263788968824940184e+00,-1.175059952038369326e+00,9.170263788968824770e+00
3.063272467749830197e-01,-6.176783812566560145e-02,-1.640042598509052207e-01,3.535676251331203446e-01,8.055155875299760737e+00,-1.647482014388489180e+00,7.143884892086330929e+00
3.112839860706174688e-01,-1.214057507987220397e-01,-2.012779552715655007e-01,1.938232161874334503e-01,7.923261390887289757e+00,-8.848920863309353013e-01,6.654676258992806126e+00
3.162407253662519180e-01,-1.086261980830670881e-01,-1.576144834930777450e-01,1.586794462193823196e-01,7.479616306954436133e+00,-3.333333333333333148e-01,5.851318944844124736e+00
3.211974646618863671e-01,-1.448349307774227934e-01,-1.501597444089456945e-01,2.300319488817891278e-01,7.467625899280575297e+00,-9.280575539568345356e-01,5.505995203836930862e+00
3.261542039575208163e-01,-1.661341853035143701e-01,-1.554845580404685956e-01,2.385516506922257807e-01,8.443645083932853623e+00,-1.613908872901678615e+00,5.067146282973620686e+00
3.311109432531552099e-01,-2.097976570820021258e-01,-1.821086261980830734e-01,1.490947816826411199e-01,9.268585131894484519e+00,-1.810551558752997670e+00,5.517985611510791699e+00
3.360676825487896591e-01,-1.991480298189563236e-01,-2.385516506922257807e-01,1.810436634717784918e-02,9.764988009592325824e+00,-1.402877697841726556e+00,4.884892086330935079e+00
3.410244218444241082e-01,-2.492012779552715551e-01,-3.045793397231096877e-01,-6.815761448349308416e-02,8.714628297362111198e+00,-6.594724220623501276e-01,4.232613908872902009e+00
3.459811611400585574e-01,-2.577209797657081802e-01,-3.226837060702875126e-01,-5.218317358892438779e-02,8.306954436450839196e+00,-5.947242206235011652e-01,3.484412470023980912e+00
3.509379004356930065e-01,-2.002129925452609260e-01,-2.374866879659212060e-01,-1.171458998935037341e-02,8.589928057553956720e+00,-9.424460431654676507e-01,2.856115107913669071e+00
3.558946397313274002e-01,-1.725239616613418459e-01,-1.363152289669861683e-01,-3.194888178913737886e-02,8.992805755395682610e+00,-1.175059952038369326e+00,3.721822541966426812e+00
3.608513790269618493e-01,-1.512247071352502692e-01,-1.458998935037273681e-01,-1.075612353567625135e-01,9.616306954436451448e+00,-9.064748201438849184e-01,3.623501199040767506e+00
3.658081183225962985e-01,-1.757188498402555976e-01,-1.767838125665601723e-01,-1.671991480298189447e-01,1.016306954436450916e+01,-6.354916067146283432e-01,3.508393285371702586e+00
3.707648576182307476e-01,-1.533546325878594185e-01,-1.373801916932907430e-01,-1.906283280085196985e-01,9.841726618705035179e+00,-4.676258992805755188e-01,2.374100719424460326e+00
3.757215969138651968e-01,-1.714589989350372712e-01,-2.555910543130990309e-02,-2.044728434504792247e-01,8.829736211031175230e+00,-5.539568345323740983e-01,2.892086330935251581e+00
3.806783362094995904e-01,-1.458998935037273681e-01,2.129925452609158706e-02,-2.300319488817891278e-01,9.069544364508393741e+00,-7.458033573141487071e-01,2.695443645083932971e+00
3.856350755051340395e-01,-1.629392971246006461e-01,5.324813631522896940e-02,-2.875399361022364375e-01,9.458033573141486627e+00,-6.235011990407673954e-01,3.035971223021582954e+00
3.905918148007684887e-01,-1.395101171458998923e-01,9.904153354632587447e-02,-3.290734824281150162e-01,9.184652278177457774e+00,-2.565947242206235157e-01,3.244604316546762401e+00
3.955485540964029378e-01,-1.064962726304579388e-01,1.373801916932907430e-01,-3.248136315228967175e-01,9.494004796163070026e+00,-3.788968824940047719e-01,3.458033573141486627e+00
4.005052933920373870e-01,-8.200212992545261037e-02,1.576144834930777450e-01,-3.365282215122470943e-01,9.532374100719424703e+00,-5.131894484412470314e-01,3.726618705035971146e+00
4.054620326876717806e-01,-6.815761448349308416e-02,1.480298189563365174e-01,-3.706070287539935948e-01,8.978417266187049606e+00,-3.093525179856115304e-01,3.798561151079136611e+00
4.104187719833062298e-01,-5.005324813631523151e-02,1.373801916932907430e-01,-3.844515441959531210e-01,8.820143884892086561e+00,-4.076738609112710160e-02,3.868105515587529908e+00
4.153755112789406789e-01,-1.810436634717784918e-02,1.586794462193823196e-01,-3.780617678381256730e-01,8.647482014388488736e+00,1.990407673860911386e-01,3.537170263788969038e+00
4.203322505745751281e-01,-2.768903088391906284e-02,2.279020234291799785e-01,-3.780617678381256730e-01,8.940047961630694928e+00,5.107913669064748641e-01,5.199040767386090778e+00
4.252889898702095772e-01,-1.916932907348242732e-02,1.597444089456868943e-01,-3.578274760383386432e-01,8.908872901678657641e+00,1.045563549160671402e+00,6.086330935251798913e+00
4.302457291658439709e-01,-3.194888178913737886e-02,0.000000000000000000e+00,-2.939297124600638855e-01,8.270983213429255798e+00,1.107913669064748197e+00,5.400479616306954611e+00
4.352024684614784200e-01,-2.236421725239616520e-02,-3.194888178913737886e-02,-2.449414270500532564e-01,8.287769784172661858e+00,9.880095923261390523e-01,4.731414868105515481e+00
4.401592077571128692e-01,-2.768903088391906284e-02,-3.833865814696485463e-02,-2.097976570820021258e-01,8.323741007194245256e+00,1.021582733812949728e+00,4.755395683453237154e+00
4.451159470527473183e-01,-9.584664536741213658e-03,-4.685835995740149362e-02,-1.640042598509052207e-01,7.772182254196642326e+00,1.194244604316546665e+00,4.376498800959232938e+00
4.500726863483817675e-01,7.454739084132055646e-03,-4.153354632587859252e-02,-6.922257720979765883e-02,8.472422062350119631e+00,7.913669064748201087e-01,5.050359712230215514e+00
4.550294256440161611e-01,9.584664536741213658e-02,-6.709265175718849561e-02,3.940362087326943624e-02,9.254196642685851515e+00,1.103117505995203779e-01,4.573141486810551548e+00
4.599861649396506103e-01,1.427050053248136441e-01,-9.158679446219382403e-02,5.750798722044728195e-02,1.024460431654676285e+01,-7.505995203836930418e-01,3.863309352517985573e+00
4.649429042352850594e-01,1.586794462193823196e-01,-4.685835995740149362e-02,-5.005324813631523151e-02,1.000239808153477306e+01,-6.450839328537170125e-01,2.791366906474820109e+00
4.698996435309195085e-01,9.797657082002129980e-02,3.514376996805111675e-02,-1.331203407880724165e-01,8.115107913669064033e+00,1.510791366906474864e-01,3.767386091127098435e+00
4.748563828265539022e-01,1.416400425985090417e-01,5.218317358892438779e-02,-9.904153354632587447e-02,7.635491606714627899e+00,6.810551558752997447e-01,3.318944844124700033e+00
4.798131221221883513e-01,1.160809371671991524e-01,9.371671991480298725e-02,-5.537806176783812567e-02,8.611510791366907114e+00,3.405275779376498724e-01,3.657074340527577849e+00
4.847698614178228005e-01,7.987220447284344715e-02,1.182108626198083018e-01,-9.904153354632587447e-02,9.203836930455635112e+00,-4.316546762589928282e-02,5.143884892086330929e+00
4.897266007134572496e-01,7.667731629392970927e-02,3.514376996805111675e-02,-2.034078807241746500e-01,9.659472422062350461e+00,1.031175059952038342e-01,5.318944844124700033e+00
4.946833400090916988e-01,2.342917997870074681e-02,-8.519701810436634826e-02,-3.130990415335463406e-01,9.597122302158274110e+00,8.345323741007194540e-01,5.249400479616307180e+00
4.996400793047261479e-01,-2.236421725239616520e-02,-1.725239616613418459e-01,-3.280085197018104415e-01,8.954436450839327932e+00,1.865707434052757741e+00,3.988009592326139163e+00
5.045968186003605416e-01,-7.987220447284344715e-02,-1.661341853035143701e-01,-2.460063897763578311e-01,8.347721822541966930e+00,2.405275779376498946e+00,3.083932853717026301e+00
5.095535578959949907e-01,-1.214057507987220397e-01,-7.880724174653887248e-02,-1.458998935037273681e-01,8.429256594724220619e+00,2.460431654676258795e+00,2.621103117505995339e+00
5.145102971916293289e-01,-1.906283280085196985e-01,-1.277955271565495154e-02,-8.732694355697551147e-02,9.043165467625899012e+00,2.009592326139088669e+00,3.009592326139088669e+00
5.194670364872637780e-01,-2.396166134185303553e-01,1.810436634717784918e-02,-9.371671991480298725e-02,9.565947242206235046e+00,1.925659472422062368e+00,2.688249400479616469e+00
5.244237757828982271e-01,-3.397231096911608184e-01,3.940362087326943624e-02,-1.001064962726304630e-01,9.424460431654676285e+00,2.359712230215827322e+00,3.323741007194244812e+00
5.293805150785326763e-01,-3.610223642172524228e-01,6.070287539936101984e-02,-3.407880724174654208e-02,8.983213429256593940e+00,2.678657074340527799e+00,3.153477218225419598e+00
5.343372543741671254e-01,-3.791267305644302477e-01,9.371671991480298725e-02,8.626198083067092293e-02,8.884892086330935967e+00,2.103117505995203640e+00,3.477218225419664410e+00
5.392939936698015746e-01,-3.535676251331203446e-01,1.320553780617678419e-01,1.533546325878594185e-01,9.009592326139088669e+00,1.419664268585131950e+00,3.625899280575539674e+00
5.442507329654360237e-01,-3.322683706070287402e-01,1.565495207667731703e-01,1.650692225772097954e-01,8.381294964028777272e+00,1.211031175059952059e+00,4.508393285371703030e+00
5.492074722610704729e-01,-2.332268370607028796e-01,1.629392971246006461e-01,1.980830670926517489e-01,8.695443645083932083e+00,9.568345323741007658e-01,5.556354916067146377e+00
5.541642115567049220e-01,-1.033013844515442009e-01,1.299254526091586925e-01,2.566560170394036056e-01,8.333333333333333925e+00,6.235011990407673954e-01,5.724220623501198979e+00
5.591209508523393712e-01,-4.259850905218317413e-02,6.602768903088392094e-02,2.864749733759318628e-01,8.249400479616307180e+00,5.899280575539568305e-01,5.848920863309352569e+00
5.640776901479737093e-01,-2.875399361022364098e-02,1.277955271565495154e-02,3.013844515441959637e-01,7.930455635491607147e+00,9.664268585131894351e-01,5.647482014388489624e+00
5.690344294436081585e-01,-5.537806176783812567e-02,-6.815761448349308416e-02,3.418530351437699677e-01,8.465227817745804018e+00,4.388489208633093441e-01,5.522781774580336034e+00
5.739911687392426076e-01,-4.898828541001064990e-02,-1.033013844515442009e-01,3.397231096911608184e-01,8.712230215827338142e+00,-1.606714628297362113e-01,4.014388489208633004e+00
5.789479080348770568e-01,-1.405750798722044670e-01,-6.922257720979765883e-02,2.875399361022364375e-01,8.407673860911270225e+00,-3.453237410071942626e-01,5.033573141486810343e+00
5.839046473305115059e-01,-1.139510117145899892e-01,-9.478168264110756192e-02,2.577209797657081802e-01,8.446043165467626679e+00,-2.877697841726618577e-01,4.834532374100719565e+00
5.888613866261459551e-01,-1.054313099041533502e-01,-1.363152289669861683e-01,2.555910543130990309e-01,9.127098321342925757e+00,-6.115107913669064477e-01,4.170263788968824770e+00
5.938181259217804042e-01,-1.096911608093716767e-01,-1.192758253461128903e-01,2.172523961661341763e-01,9.577937649880096771e+00,-7.817745803357314394e-01,3.793764988009592276e+00
5.987748652174148534e-01,-1.277955271565495154e-01,-9.584664536741213658e-02,1.778487752928647470e-01,9.426858513189447564e+00,-7.817745803357314394e-01,3.913669064748201532e+00
6.037316045130493025e-01,-1.352502662406815659e-01,-1.107561235356762513e-01,1.693290734824281218e-01,9.323741007194245256e+00,-1.055155875299760293e+00,3.865707434052757741e+00
6.086883438086837517e-01,-1.033013844515442009e-01,-8.839190628328008614e-02,1.363152289669861683e-01,9.366906474820144268e+00,-1.134292565947242259e+00,3.527577937649879924e+00
6.136450831043180898e-01,-8.839190628328008614e-02,-6.070287539936101984e-02,8.732694355697551147e-02,8.954436450839327932e+00,-9.280575539568345356e-01,3.846522781774580402e+00
6.186018223999525389e-01,-5.431309904153354406e-02,-6.922257720979765883e-02,4.792332268370606829e-02,9.153477218225420486e+00,-8.609112709832134058e-01,3.230215827338129397e+00
6.235585616955869881e-01,-5.111821086261980618e-02,-3.407880724174654208e-02,1.384451544195953142e-02,9.302158273381294862e+00,-7.817745803357314394e-01,3.208633093525179891e+00
6.285153009912214372e-01,-2.768903088391906284e-02,1.916932907348242732e-02,-6.389776357827475772e-03,9.223021582733812451e+00,-5.083932853717025857e-01,3.318944844124700033e+00
6.334720402868558864e-01,-1.703940362087327104e-02,4.685835995740149362e-02,3.194888178913737886e-03,9.177458033573142160e+00,-4.604316546762590168e-01,3.800959232613908778e+00
6.384287795824903355e-01,1.490947816826411129e-02,3.940362087326943624e-02,1.597444089456868943e-02,9.059952038369305072e+00,-6.354916067146283432e-01,3.676258992805755188e+00
6.433855188781247847e-01,4.153354632587859252e-02,4.898828541001064990e-02,1.064962726304579440e-03,8.956834532374100988e+00,-8.657074340527577405e-01,3.460431654676258795e+00
6.483422581737592338e-01,5.324813631522896940e-02,8.200212992545261037e-02,-4.685835995740149362e-02,8.908872901678657641e+00,-8.105515587529975585e-01,3.676258992805755188e+00
6.532989974693936830e-01,6.496272630457934627e-02,1.107561235356762513e-01,-8.839190628328008614e-02,8.851318944844123848e+00,-5.227817745803357008e-01,4.033573141486810343e+00
6.582557367650280211e-01,7.135250266240682204e-02,1.128860489882854146e-01,-9.371671991480298725e-02,8.995203836930455665e+00,-4.004796163069544446e-01,4.426858513189448452e+00
6.632124760606624703e-01,7.987220447284344715e-02,9.158679446219382403e-02,-9.797657082002129980e-02,9.081534772182253690e+00,-4.820143884892086339e-01,4.239808153477218511e+00
6.681692153562969194e-01,5.750798722044728195e-02,9.052183173588924936e-02,-1.203407880724174650e-01,9.460431654676259683e+00,-5.203836930455635335e-01,4.750599520383692820e+00
6.731259546519313686e-01,6.922257720979765883e-02,6.602768903088392094e-02,-1.267305644302449408e-01,8.503597122302158695e+00,-8.153477218225420320e-02,5.107913669064748419e+00
6.780826939475658177e-01,8.519701810436634826e-02,-9.584664536741213658e-03,-1.064962726304579388e-01,8.820143884892086561e+00,-1.798561151079136611e-01,4.374100719424460770e+00
6.830394332432002669e-01,8.200212992545261037e-02,-1.597444089456868943e-02,-1.267305644302449408e-01,8.846522781774579514e+00,-2.877697841726618577e-01,3.640287769784172678e+00
6.879961725388347160e-01,7.135250266240682204e-02,4.153354632587859252e-02,-1.799787007454738963e-01,8.604316546762589724e+00,6.474820143884892076e-02,3.964028776978417046e+00
6.929529118344691652e-01,7.028753993610223350e-02,5.111821086261980618e-02,-2.002129925452609260e-01,8.700239808153476417e+00,4.724220623501199090e-01,4.424460431654676285e+00
6.979096511301036143e-01,9.691160809371672513e-02,4.685835995740149362e-02,-1.810436634717784987e-01,8.844124700239808234e+00,6.762589928057554101e-01,3.944844124700239707e+00
7.028663904257380635e-01,1.022364217252396124e-01,1.139510117145899892e-01,-1.448349307774227934e-01,8.354916067146282543e+00,1.083932853717026301e+00,4.750599520383692820e+00
7.078231297213724016e-01,1.384451544195953177e-01,1.160809371671991524e-01,-7.880724174653887248e-02,8.366906474820144268e+00,1.326139088729016757e+00,5.820143884892086561e+00
7.127798690170068507e-01,2.002129925452609260e-01,1.277955271565495154e-02,8.519701810436635520e-03,8.455635491606715348e+00,1.143884892086330929e+00,5.249400479616307180e+00
7.177366083126412999e-01,2.087326943556975511e-01,-5.005324813631523151e-02,6.496272630457934627e-02,8.868105515587529908e+00,9.208633093525180335e-01,4.366906474820144268e+00
7.226933476082757490e-01,1.874334398296059745e-01,-4.685835995740149362e-02,7.135250266240682204e-02,8.724220623501199867e+00,1.225419664268585063e+00,4.211031175059951615e+00
7.276500869039101982e-01,1.831735889243876481e-01,-4.153354632587859252e-02,1.022364217252396124e-01,8.625899280575540118e+00,1.494004796163069582e+00,3.868105515587529908e+00
7.326068261995446473e-01,1.640042598509052207e-01,-4.259850905218317413e-02,1.597444089456868943e-01,9.043165467625899012e+00,1.158273381294963933e+00,3.539568345323741205e+00
7.375635654951790965e-01,1.512247071352502692e-01,-1.277955271565495154e-02,1.831735889243876481e-01,9.359712230215826878e+00,7.673860911270983243e-01,3.225419664268585063e+00
7.425203047908135456e-01,1.256656017039403661e-01,3.407880724174654208e-02,1.778487752928647470e-01,9.333333333333333925e+00,6.522781774580336256e-01,3.553956834532374209e+00
7.474770440864479948e-01,1.182108626198083018e-01,5.005324813631523151e-02,1.799787007454738963e-01,9.105515587529975363e+00,7.266187050359712574e-01,3.784172661870503607e+00
7.524337833820824439e-01,1.182108626198083018e-01,5.111821086261980618e-02,2.076677316293929765e-01,9.079136690647482411e+00,6.618705035971222950e-01,3.863309352517985573e+00
7.573905226777167821e-01,1.299254526091586925e-01,5.963791267305644517e-02,2.225772097976570774e-01,9.201438848920863833e+00,3.525179856115107646e-01,4.052757793764987682e+00
7.623472619733512312e-01,1.490947816826411199e-01,6.922257720979765883e-02,2.140575079872204523e-01,9.779376498800958828e+00,1.103117505995203779e-01,3.829736211031175230e+00
7.673040012689856804e-01,1.416400425985090417e-01,9.052183173588924936e-02,2.002129925452609260e-01,1.000959232613908867e+01,3.836930455635491344e-02,4.362110311750599934e+00
7.722607405646201295e-01,1.799787007454738963e-01,1.150159744408945639e-01,2.055378061767837994e-01,1.008153477218225369e+01,1.582733812949640162e-01,4.386091127098321607e+00
7.772174798602545787e-01,1.991480298189563236e-01,1.203407880724174650e-01,2.364217252396166036e-01,1.035971223021582688e+01,6.714628297362110199e-02,4.681055155875299967e+00
7.821742191558890278e-01,2.502662406815761575e-01,1.139510117145899892e-01,2.587859424920127549e-01,1.033812949640287826e+01,1.510791366906474864e-01,4.211031175059951615e+00
7.871309584515234770e-01,2.747603833865814860e-01,1.224707135250266282e-01,2.822151224707135087e-01,1.022541966426858551e+01,2.086330935251798635e-01,4.081534772182254578e+00
7.920876977471579261e-01,3.205537806176783633e-01,1.373801916932907430e-01,3.120340788072417659e-01,1.033573141486810520e+01,1.534772182254196538e-01,3.604316546762589724e+00
7.970444370427923753e-01,3.588924387646432179e-01,1.778487752928647470e-01,3.280085197018104415e-01,1.054436450839328465e+01,-7.673860911270982688e-02,3.064748201438848962e+00
8.020011763384268244e-01,3.844515441959531210e-01,2.523961661341853069e-01,3.013844515441959637e-01,1.049880095923261436e+01,-8.153477218225420320e-02,2.906474820143885029e+00
8.069579156340611625e-01,3.908413205537806245e-01,3.312034078807241655e-01,2.566560170394036056e-01,1.021342925659472378e+01,3.237410071942445899e-01,3.352517985611510820e+00
8.119146549296956117e-01,3.791267305644302477e-01,3.493077742279020459e-01,2.406815761448349300e-01,9.942446043165467984e+00,5.227817745803357008e-01,4.047961630695443347e+00
8.168713942253300608e-01,3.727369542066027441e-01,3.120340788072417659e-01,2.460063897763578311e-01,9.784172661870503163e+00,3.621103117505995450e-01,3.577937649880095883e+00
8.218281335209645100e-01,3.322683706070287402e-01,3.194888178913737886e-01,2.225772097976570774e-01,9.705035971223020752e+00,7.673860911270982688e-02,3.270983213429256686e+00
8.267848728165989591e-01,2.875399361022364375e-01,3.844515441959531210e-01,1.608093716719914690e-01,9.635491606714628787e+00,1.294964028776978415e-01,3.410071942446043280e+00
8.317416121122334083e-01,2.225772097976570774e-01,4.227902023429179756e-01,1.118210862619808260e-01,9.510791366906474309e+00,2.733812949640287981e-01,4.115107913669064921e+00
8.366983514078678574e-01,1.703940362087326965e-01,4.014909478168264267e-01,8.306709265175718504e-02,9.419664268585131950e+00,3.333333333333333148e-01,4.316546762589927866e+00
8.416550907035023066e-01,1.224707135250266282e-01,3.631522896698615721e-01,5.750798722044728195e-02,9.249400479616307180e+00,3.573141486810551548e-01,3.928057553956834536e+00
8.466118299991367557e-01,9.797657082002129980e-02,3.791267305644302477e-01,3.194888178913737886e-02,9.163069544364509156e+00,5.491606714628297636e-01,3.539568345323741205e+00
8.515685692947712049e-01,7.987220447284344715e-02,4.440894568690095801e-01,3.407880724174654208e-02,9.194244604316546443e+00,7.673860911270983243e-01,3.458033573141486627e+00
8.565253085904055430e-01,5.857294994675186356e-02,5.047923322683706138e-01,6.922257720979765883e-02,9.314148681055156587e+00,7.553956834532373765e-01,4.086330935251798913e+00
8.614820478860399922e-01,5.431309904153354406e-02,5.335463258785942964e-01,1.011714589989350377e-01,9.230215827338129841e+00,5.227817745803357008e-01,4.232613908872902009e+00
8.664387871816744413e-01,2.449414270500532495e-02,5.356762513312034457e-01,1.107561235356762513e-01,9.266187050359711463e+00,7.673860911270982688e-02,4.772182254196642326e+00
8.713955264773088905e-01,1.916932907348242732e-02,5.228966986155484387e-01,8.200212992545261037e-02,9.083932853717026745e+00,6.474820143884892076e-02,4.738609112709831983e+00
8.763522657729433396e-01,-1.597444089456868943e-02,5.026624068157614644e-01,6.602768903088392094e-02,8.621103117505995783e+00,2.206235011990407557e-01,5.184652278177457774e+00
8.813090050685777888e-01,-2.129925452609158880e-03,4.856230031948881587e-01,7.454739084132055993e-02,8.606714628297362779e+00,2.374100719424460382e-01,5.326139088729016535e+00
8.862657443642122379e-01,-7.454739084132055646e-03,4.526091586794462329e-01,1.011714589989350377e-01,8.498800959232614360e+00,3.357314148681055099e-02,5.736211031175059816e+00
8.912224836598466871e-01,1.171458998935037341e-02,4.100106496272630241e-01,1.171458998935037271e-01,8.685851318944843413e+00,-2.422062350119904006e-01,6.299760191846522694e+00
8.961792229554811362e-01,3.407880724174654208e-02,3.312034078807241655e-01,1.022364217252396124e-01,8.625899280575540118e+00,-2.206235011990407557e-01,6.436450839328537121e+00
9.011359622511155854e-01,3.514376996805111675e-02,2.279020234291799785e-01,8.093716719914803570e-02,8.398081534772181556e+00,-8.153477218225420320e-02,6.707434052757793808e+00
9.060927015467499235e-01,6.922257720979765883e-02,1.384451544195953177e-01,7.774227902023429781e-02,8.117505995203837088e+00,1.438848920863309289e-01,6.287769784172661858e+00
9.110494408423843726e-01,7.667731629392970927e-02,7.348242811501597138e-02,8.732694355697551147e-02,8.213429256594723782e+00,9.832134292565947176e-02,6.621103117505994895e+00
9.160061801380188218e-01,1.096911608093716767e-01,-4.259850905218317760e-03,9.584664536741213658e-02,8.426858513189447564e+00,1.414868105515587615e-01,6.436450839328537121e+00
9.209629194336532709e-01,1.096911608093716767e-01,-1.011714589989350377e-01,9.478168264110756192e-02,8.498800959232614360e+00,3.213429256594724226e-01,6.340527577937649539e+00
9.259196587292877201e-01,1.192758253461128903e-01,-1.884984025559105492e-01,9.904153354632587447e-02,8.573141486810552436e+00,6.642685851318944623e-01,5.762589928057553657e+00
9.308763980249221692e-01,1.128860489882854146e-01,-2.385516506922257807e-01,1.288604898828540901e-01,8.561151079136690711e+00,9.832134292565947176e-01,5.266187050359712352e+00
9.358331373205566184e-01,1.075612353567625135e-01,-2.566560170394036056e-01,1.884984025559105492e-01,8.664268585131894795e+00,9.856115107913668849e-01,5.127098321342925757e+00
9.407898766161910675e-01,1.022364217252396124e-01,-2.673056443024494078e-01,2.481363152289669805e-01,8.964028776978416602e+00,7.218225419664268117e-01,4.937649880095923649e+00
9.457466159118255167e-01,7.454739084132055993e-02,-2.896698615548455868e-01,2.726304579339723366e-01,9.199040767386090778e+00,4.700239808153477417e-01,5.040767386091126845e+00
9.507033552074598548e-01,4.792332268370606829e-02,-3.194888178913737886e-01,2.726304579339723366e-01,9.167865707434053490e+00,5.011990407673860837e-01,4.676258992805755632e+00
9.556600945030943040e-01,2.129925452609158880e-03,-3.397231096911608184e-01,2.768903088391906353e-01,9.112709832134292753e+00,5.587529976019184330e-01,4.573141486810551548e+00
9.606168337987287531e-01,-2.449414270500532495e-02,-3.343982960596378895e-01,2.907348242811501615e-01,9.290167865707434913e+00,4.052757793764987793e-01,4.237410071942446343e+00
9.655735730943632023e-01,-5.857294994675186356e-02,-3.077742279020234117e-01,3.035143769968051131e-01,9.486810551558752636e+00,2.637889688249400386e-02,4.419664268585131950e+00
9.705303123899976514e-01,-7.774227902023429781e-02,-2.886048988285410122e-01,2.907348242811501615e-01,9.477218225419663966e+00,-2.398081534772182333e-01,4.616306954436450560e+00
9.754870516856321006e-01,-1.064962726304579388e-01,-3.003194888178913891e-01,2.566560170394036056e-01,9.292565947242206192e+00,-2.901678657074340251e-01,4.863309352517985573e+00
9.804437909812665497e-01,-1.256656017039403661e-01,-3.301384451544195908e-01,2.236421725239616520e-01,9.064748201438849406e+00,-2.494004796163069582e-01,4.836930455635491732e+00
9.854005302769009988e-01,-1.331203407880724165e-01,-3.546325878594249192e-01,2.055378061767837994e-01,8.980815347721822661e+00,-2.805755395683453002e-01,4.623501199040767062e+00
9.903572695725354480e-01,-1.416400425985090417e-01,-3.695420660276890201e-01,1.853035143769967974e-01,9.076738609112709355e+00,-4.076738609112710021e-01,4.609112709832134058e+00
9.953140088681698971e-01,-1.427050053248136441e-01,-3.844515441959531210e-01,1.544195953141639932e-01,9.225419664268585507e+00,-4.820143884892086339e-01,4.419664268585131950e+00
1.000270748163804457e+00,-1.490947816826411199e-01,-4.057507987220447254e-01,1.182108626198083018e-01,9.282973621103117523e+00,-4.268585131894484519e-01,4.386091127098321607e+00
1.005227487459438906e+00,-1.373801916932907430e-01,-4.185303514376996770e-01,8.626198083067092293e-02,9.304556354916067917e+00,-3.141486810551558650e-01,4.026378896882493841e+00
1.010184226755073356e+00,-1.341853035143769912e-01,-4.110756123535675988e-01,7.135250266240682204e-02,9.306954436450839196e+00,-3.141486810551558650e-01,3.812949640287769615e+00
1.015140966050707805e+00,-1.171458998935037271e-01,-3.823216187433439717e-01,6.176783812566560145e-02,9.465227817745804018e+00,-2.997601918465228055e-01,3.616306954436451004e+00
1.020097705346342254e+00,-1.107561235356762513e-01,-3.525026624068157699e-01,4.685835995740149362e-02,9.645083932853717457e+00,-2.973621103117505826e-01,3.561151079136690711e+00
1.025054444641976481e+00,-1.107561235356762513e-01,-3.333333333333333148e-01,2.449414270500532495e-02,9.599520383693045389e+00,-1.390887290167865664e-01,3.446043165467625791e+00
1.030011183937610930e+00,-1.182108626198083018e-01,-3.099041533546325611e-01,9.584664536741213658e-03,9.568345323741006325e+00,1.031175059952038342e-01,3.151079136690647431e+00
1.034967923233245379e+00,-1.341853035143769912e-01,-2.694355697550585571e-01,8.519701810436635520e-03,9.601918465227818444e+00,2.038369304556355011e-01,3.043165467625899456e+00
1.039924662528879828e+00,-1.437699680511182188e-01,-2.129925452609158776e-01,1.384451544195953142e-02,9.597122302158274110e+00,8.153477218225420320e-02,3.079136690647481966e+00
1.044881401824514278e+00,-1.490947816826411199e-01,-1.629392971246006461e-01,1.597444089456868943e-02,9.589928057553956720e+00,-1.534772182254196538e-01,3.412470023980815448e+00
1.049838141120148727e+00,-1.458998935037273681e-01,-1.363152289669861683e-01,6.389776357827475772e-03,9.520383693045562978e+00,-2.494004796163069582e-01,3.637889688249400511e+00
1.054794880415783176e+00,-1.384451544195953177e-01,-1.299254526091586925e-01,-6.389776357827475772e-03,9.314148681055156587e+00,-2.134292565947242259e-01,3.829736211031175230e+00
1.059751619711417625e+00,-1.128860489882854146e-01,-1.267305644302449408e-01,-5.324813631522896766e-03,9.175059952038369104e+00,-1.486810551558752913e-01,3.851318944844124736e+00
1.064708359007052074e+00,-8.200212992545261037e-02,-1.203407880724174650e-01,8.519701810436635520e-03,9.179856115107913439e+00,-2.565947242206235157e-01,3.870503597122302075e+00
1.069665098302686523e+00,-5.111821086261980618e-02,-1.139510117145899892e-01,1.277955271565495154e-02,9.247002398081534125e+00,-4.196642685851318944e-01,3.937649880095923205e+00
1.074621837598320973e+00,-1.810436634717784918e-02,-1.128860489882854146e-01,-1.064962726304579440e-03,9.251798561151078459e+00,-5.227817745803357008e-01,4.062350119904076351e+00
1.079578576893955422e+00,1.064962726304579353e-02,-1.246006389776357776e-01,-2.129925452609158706e-02,9.208633093525179447e+00,-4.700239808153477417e-01,4.134292565947242259e+00
1.084535316189589871e+00,4.153354632587859252e-02,-1.363152289669861683e-01,-3.727369542066027996e-02,9.175059952038369104e+00,-3.908872901678657197e-01,3.992805755395683498e+00
1.089492055485224320e+00,6.602768903088392094e-02,-1.299254526091586925e-01,-4.366347177848775574e-02,9.141486810551558762e+00,-3.860911270983213295e-01,3.944844124700239707e+00
1.094448794780858769e+00,8.945686900958466081e-02,-1.160809371671991524e-01,-5.005324813631523151e-02,9.163069544364509156e+00,-4.580335731414867939e-01,3.930455635491606703e+00
1.099405534076493218e+00,9.904153354632587447e-02,-1.139510117145899892e-01,-7.348242811501597138e-02,9.225419664268585507e+00,-4.268585131894484519e-01,4.081534772182254578e+00
1.104362273372127667e+00,1.064962726304579388e-01,-1.246006389776357776e-01,-1.001064962726304630e-01,9.230215827338129841e+00,-3.021582733812949728e-01,4.050359712230215514e+00
1.109319012667762117e+00,1.054313099041533502e-01,-1.320553780617678419e-01,-1.182108626198083018e-01,9.167865707434053490e+00,-1.894484412470023860e-01,3.904076738609112862e+00
1.114275751963396566e+00,9.904153354632587447e-02,-1.267305644302449408e-01,-1.299254526091586925e-01,9.179856115107913439e+00,-3.836930455635491344e-02,3.755395683453237599e+00
1.119232491259031015e+00,8.839190628328008614e-02,-1.118210862619808260e-01,-1.427050053248136441e-01,9.201438848920863833e+00,1.223021582733812979e-01,3.705035971223021640e+00
1.124189230554665242e+00,7.241746538871139671e-02,-1.001064962726304630e-01,-1.469648562300319428e-01,9.196642685851319499e+00,2.565947242206235157e-01,3.741007194244604150e+00
1.129145969850299691e+00,5.750798722044728195e-02,-9.052183173588924936e-02,-1.416400425985090417e-01,9.151079136690647431e+00,3.669064748201438797e-01,3.741007194244604150e+00
1.134102709145934140e+00,4.153354632587859252e-02,-7.774227902023429781e-02,-1.299254526091586925e-01,9.170263788968824770e+00,4.508393285371702364e-01,3.676258992805755188e+00
1.139059448441568589e+00,2.662406815761448470e-02,-6.070287539936101984e-02,-1.171458998935037271e-01,9.191846522781775164e+00,5.371702637889688159e-01,3.642685851318944845e+00
1.144016187737203039e+00,4.259850905218317760e-03,-3.727369542066027996e-02,-9.691160809371672513e-02,9.179856115107913439e+00,5.779376498800958828e-01,3.685851318944844301e+00
1.148972927032837488e+00,-1.597444089456868943e-02,-1.384451544195953142e-02,-7.667731629392970927e-02,9.153477218225420486e+00,4.844124700239808012e-01,3.748201438848920652e+00
1.153929666328471937e+00,-3.407880724174654208e-02,6.389776357827475772e-03,-6.709265175718849561e-02,9.127098321342925757e+00,2.613908872901678504e-01,3.932853717026378870e+00
1.158886405624106386e+00,-4.046858359957401785e-02,1.597444089456868943e-02,-6.602768903088392094e-02,9.064748201438849406e+00,2.398081534772182263e-02,4.115107913669064921e+00
1.163843144919740835e+00,-3.620873269435569836e-02,1.384451544195953142e-02,-7.561235356762513460e-02,8.992805755395682610e+00,-2.158273381294964141e-02,4.261390887290168017e+00
1.168799884215375284e+00,-2.555910543130990309e-02,8.519701810436635520e-03,-8.519701810436634826e-02,8.952038369304556653e+00,-4.796163069544364527e-02,4.318944844124700033e+00
1.173756623511009733e+00,-5.324813631522896766e-03,5.324813631522896766e-03,-8.626198083067092293e-02,9.057553956834532016e+00,-1.318944844124700366e-01,4.352517985611510376e+00
1.178713362806644183e+00,1.703940362087327104e-02,8.519701810436635520e-03,-8.839190628328008614e-02,9.177458033573142160e+00,-2.757793764988009655e-01,4.398081534772182444e+00
1.183670102102278632e+00,4.472843450479233041e-02,1.703940362087327104e-02,-9.797657082002129980e-02,9.100719424460431028e+00,-3.045563549160671402e-01,4.525179856115108201e+00
1.188626841397913081e+00,7.135250266240682204e-02,1.597444089456868943e-02,-1.118210862619808260e-01,8.889688249400480302e+00,-2.398081534772182333e-01,4.800959232613909222e+00
1.193583580693547530e+00,9.584664536741213658e-02,0.000000000000000000e+00,-1.160809371671991524e-01,8.700239808153476417e+00,-1.462829736211031240e-01,4.990407673860911331e+00
1.198540319989181979e+00,1.182108626198083018e-01,-3.088391906283280072e-02,-1.150159744408945639e-01,8.666666666666666075e+00,-1.151079136690647542e-01,5.031175059952038175e+00
1.203497059284816428e+00,1.277955271565495154e-01,-6.922257720979765883e-02,-1.214057507987220397e-01,8.628297362110311397e+00,-8.872901678657074687e-02,4.983213429256594829e+00
1.208453798580450878e+00,1.246006389776357776e-01,-1.086261980830670881e-01,-1.352502662406815659e-01,8.577937649880096771e+00,9.592326139088728360e-03,4.896882494004795916e+00
1.213410537876085327e+00,1.192758253461128903e-01,-1.458998935037273681e-01,-1.480298189563365174e-01,8.546762589928057707e+00,1.630695443645084064e-01,4.769784172661870159e+00
1.218367277171719776e+00,1.043663471778487756e-01,-1.810436634717784987e-01,-1.554845580404685956e-01,8.594724220623501054e+00,2.422062350119904006e-01,4.587529976019184552e+00
1.223324016467354003e+00,8.839190628328008614e-02,-1.970181043663471743e-01,-1.586794462193823196e-01,8.477218225419663966e+00,3.429256594724220397e-01,4.505995203836930862e+00
1.228280755762988452e+00,6.815761448349308416e-02,-2.034078807241746500e-01,-1.576144834930777450e-01,8.570743405275779381e+00,2.781774580335731328e-01,4.515587529976019532e+00
1.233237495058622901e+00,5.537806176783812567e-02,-2.193823216187433534e-01,-1.608093716719914690e-01,8.649880095923261791e+00,2.398081534772182333e-01,4.414868105515587615e+00
1.238194234354257350e+00,3.620873269435569836e-02,-2.417465388711395047e-01,-1.693290734824281218e-01,8.494004796163070026e+00,3.405275779376498724e-01,4.247002398081535013e+00
1.243150973649891800e+00,1.916932907348242732e-02,-2.481363152289669805e-01,-1.735889243876464205e-01,8.446043165467626679e+00,5.275779376498801465e-01,4.050359712230215514e+00
1.248107712945526249e+00,4.259850905218317760e-03,-2.406815761448349300e-01,-1.618743343982960714e-01,8.541966426858513373e+00,6.354916067146283432e-01,3.877697841726618577e+00
1.253064452241160698e+00,-9.584664536741213658e-03,-2.247071352502662545e-01,-1.469648562300319428e-01,8.676258992805754744e+00,5.875299760191846632e-01,3.846522781774580402e+00
1.258021191536795147e+00,-2.023429179978700893e-02,-2.034078807241746500e-01,-1.320553780617678419e-01,8.714628297362111198e+00,5.203836930455635335e-01,3.880095923261390745e+00
1.262977930832429596e+00,-2.555910543130990309e-02,-1.789137380191693216e-01,-1.192758253461128903e-01,8.681055155875299079e+00,4.172661870503597270e-01,4.067146282973620686e+00
1.267934670128064045e+00,-1.810436634717784918e-02,-1.693290734824281218e-01,-1.086261980830670881e-01,8.575539568345323715e+00,3.525179856115107646e-01,4.187050359712229941e+00
1.272891409423698494e+00,-3.194888178913737886e-03,-1.682641107561235472e-01,-1.022364217252396124e-01,8.453237410071942293e+00,3.093525179856115304e-01,4.287769784172661858e+00
1.277848148719332944e+00,2.023429179978700893e-02,-1.746538871139510229e-01,-9.158679446219382403e-02,8.335731414868105205e+00,3.261390887290168128e-01,4.316546762589927866e+00
1.282804888014967393e+00,4.579339723109691201e-02,-1.831735889243876481e-01,-7.454739084132055993e-02,8.266187050359711463e+00,3.285371702637889801e-01,4.390887290167865942e+00
1.287761627310601842e+00,7.241746538871139671e-02,-1.959531416400425996e-01,-6.070287539936101984e-02,8.218225419664268117e+00,2.997601918465228055e-01,4.400479616306954611e+00
1.292718366606236291e+00,8.839190628328008614e-02,-2.108626198083067005e-01,-5.431309904153354406e-02,8.237410071942445455e+00,2.949640287769784153e-01,4.347721822541966041e+00
1.297675105901870740e+00,9.158679446219382403e-02,-2.236421725239616520e-01,-5.324813631522896940e-02,8.249400479616307180e+00,3.477218225419664299e-01,4.194244604316546443e+00
1.302631845197505189e+00,9.584664536741213658e-02,-2.332268370607028796e-01,-5.644302449414270728e-02,8.254196642685851515e+00,4.268585131894484519e-01,3.997601918465227833e+00
1.307588584493139638e+00,9.265175718849839870e-02,-2.364217252396166036e-01,-5.111821086261980618e-02,8.249400479616307180e+00,5.155875299760191988e-01,3.882494004796162912e+00
1.312545323788774088e+00,8.413205537806177359e-02,-2.300319488817891278e-01,-4.472843450479233041e-02,8.263788968824940184e+00,5.563549160671462657e-01,3.745803357314148485e+00
1.317502063084408315e+00,7.028753993610223350e-02,-2.193823216187433534e-01,-4.153354632587859252e-02,8.299760191846523583e+00,5.659472422062350461e-01,3.681055155875299967e+00
1.322458802380042764e+00,5.111821086261980618e-02,-2.097976570820021258e-01,-4.153354632587859252e-02,8.333333333333333925e+00,6.091127098321342803e-01,3.577937649880095883e+00
1.327415541675677213e+00,2.662406815761448470e-02,-1.948881789137380249e-01,-3.833865814696485463e-02,8.374100719424459882e+00,6.978417266187050272e-01,3.484412470023980912e+00
1.332372280971311662e+00,9.584664536741213658e-03,-1.703940362087326965e-01,-2.662406815761448470e-02,8.386091127098321607e+00,6.930455635491606925e-01,3.417266187050359783e+00
1.337329020266946111e+00,-3.194888178913737886e-03,-1.373801916932907430e-01,-1.171458998935037341e-02,8.376498800959232938e+00,6.570743405275779603e-01,3.436450839328537121e+00
1.342285759562580560e+00,-5.324813631522896766e-03,-1.054313099041533502e-01,3.194888178913737886e-03,8.345323741007193874e+00,5.875299760191846632e-01,3.553956834532374209e+00
1.347242498858215010e+00,2.129925452609158880e-03,-8.093716719914803570e-02,2.768903088391906284e-02,8.249400479616307180e+00,4.748201438848920763e-01,3.733812949640287648e+00
1.352199238153849459e+00,1.810436634717784918e-02,-6.602768903088392094e-02,4.792332268370606829e-02,8.211031175059952503e+00,3.141486810551558650e-01,3.906474820143885029e+00
1.357155977449483908e+00,3.620873269435569836e-02,-6.389776357827475772e-02,5.324813631522896940e-02,8.211031175059952503e+00,1.390887290167865664e-01,4.038369304556354678e+00
1.362112716745118357e+00,5.537806176783812567e-02,-7.135250266240682204e-02,5.005324813631523151e-02,8.215827338129496837e+00,3.357314148681055099e-02,4.100719424460431917e+00
1.367069456040752806e+00,7.135250266240682204e-02,-8.200212992545261037e-02,4.259850905218317413e-02,8.191846522781775164e+00,2.637889688249400386e-02,4.088729016786571080e+00
1.372026195336387255e+00,8.306709265175718504e-02,-8.732694355697551147e-02,3.301384451544196047e-02,8.131894484412470092e+00,5.995203836930455832e-02,4.083932853717026745e+00
1.376982934632021705e+00,9.265175718849839870e-02,-9.584664536741213658e-02,2.875399361022364098e-02,8.139088729016785706e+00,5.515587529976018893e-02,4.112709832134292753e+00
1.381939673927656154e+00,1.001064962726304630e-01,-1.064962726304579388e-01,2.236421725239616520e-02,8.218225419664268117e+00,3.836930455635491344e-02,4.055155875299759849e+00
1.386896413223290603e+00,1.011714589989350377e-01,-1.192758253461128903e-01,9.584664536741213658e-03,8.270983213429255798e+00,1.318944844124700366e-01,3.925659472422062368e+00
1.391853152518925052e+00,9.265175718849839870e-02,-1.256656017039403661e-01,-2.129925452609158880e-03,8.268585131894484519e+00,3.093525179856115304e-01,3.733812949640287648e+00
1.396809891814559501e+00,8.200212992545261037e-02,-1.224707135250266282e-01,1.064962726304579440e-03,8.323741007194245256e+00,4.940047961630695261e-01,3.539568345323741205e+00
1.401766631110193950e+00,6.070287539936101984e-02,-1.064962726304579388e-01,1.490947816826411129e-02,8.366906474820144268e+00,5.995203836930456109e-01,3.398081534772182444e+00
1.406723370405828399e+00,3.727369542066027996e-02,-7.987220447284344715e-02,2.981895633652822258e-02,8.424460431654676285e+00,6.139088729016786150e-01,3.350119904076738653e+00
1.411680109701462849e+00,1.703940362087327104e-02,-5.431309904153354406e-02,4.579339723109691201e-02,8.470023980815348352e+00,5.779376498800958828e-01,3.455635491606714460e+00
1.416636848997097076e+00,-2.129925452609158880e-03,-4.046858359957401785e-02,5.963791267305644517e-02,8.453237410071942293e+00,5.395683453237409832e-01,3.534772182254196426e+00
1.421593588292731525e+00,-1.384451544195953142e-02,-3.407880724174654208e-02,7.667731629392970927e-02,8.386091127098321607e+00,5.467625899280575963e-01,3.527577937649879924e+00
1.426550327588365974e+00,-2.342917997870074681e-02,-2.129925452609158706e-02,9.904153354632587447e-02,8.328537170263789591e+00,5.203836930455635335e-01,3.522781774580335590e+00
1.431507066884000423e+00,-2.555910543130990309e-02,-6.389776357827475772e-03,1.214057507987220397e-01,8.306954436450839196e+00,4.652278177458033515e-01,3.642685851318944845e+00
1.436463806179634872e+00,-2.981895633652822258e-02,-1.064962726304579440e-03,1.363152289669861683e-01,8.364508393285371213e+00,3.261390887290168128e-01,3.788968824940047941e+00
1.441420545475269321e+00,-3.620873269435569836e-02,-4.259850905218317760e-03,1.448349307774227934e-01,8.407673860911270225e+00,1.702637889688249362e-01,3.896882494004796360e+00
1.446377284770903771e+00,-4.046858359957401785e-02,-1.384451544195953142e-02,1.427050053248136441e-01,8.388489208633092886e+00,6.954436450839328321e-02,3.940047961630695372e+00
1.451334024066538220e+00,-3.727369542066027996e-02,-1.916932907348242732e-02,1.373801916932907430e-01,8.366906474820144268e+00,9.592326139088728360e-03,3.952038369304556209e+00
1.456290763362172669e+00,-3.407880724174654208e-02,-2.449414270500532495e-02,1.309904153354632672e-01,8.402877697841725890e+00,-7.673860911270982688e-02,4.014388489208633004e+00
1.461247502657807118e+00,-2.981895633652822258e-02,-3.301384451544196047e-02,1.235356762513312029e-01,8.395683453237410276e+00,-1.678657074340527688e-01,4.076738609112710243e+00
1.466204241953441567e+00,-2.342917997870074681e-02,-4.685835995740149362e-02,1.096911608093716767e-01,8.431654676258993675e+00,-2.302158273381295084e-01,4.122302158273381423e+00
1.471160981249076016e+00,-1.810436634717784918e-02,-6.922257720979765883e-02,9.478168264110756192e-02,8.374100719424459882e+00,-1.942446043165467762e-01,4.127098321342925757e+00
1.476117720544710465e+00,-8.519701810436635520e-03,-9.265175718849839870e-02,7.880724174653887248e-02,8.390887290167865942e+00,-8.633093525179856564e-02,4.016786570743405171e+00
1.481074459840344915e+00,2.129925452609158880e-03,-1.118210862619808260e-01,7.135250266240682204e-02,8.458033573141486627e+00,7.194244604316547137e-03,3.829736211031175230e+00
1.486031199135979364e+00,8.519701810436635520e-03,-1.203407880724174650e-01,6.815761448349308416e-02,8.541966426858513373e+00,8.633093525179856564e-02,3.664268585131894351e+00
1.490987938431613813e+00,7.454739084132055646e-03,-1.182108626198083018e-01,7.028753993610223350e-02,8.594724220623501054e+00,1.678657074340527688e-01,3.498800959232613916e+00
1.495944677727248262e+00,4.259850905218317760e-03,-1.096911608093716767e-01,7.135250266240682204e-02,8.661870503597121740e+00,1.942446043165467762e-01,3.414868105515587615e+00
1.500901417022882711e+00,-6.389776357827475772e-03,-1.011714589989350377e-01,7.135250266240682204e-02,8.729016786570744202e+00,1.654676258992805737e-01,3.388489208633093330e+00
1.505858156318517160e+00,-1.810436634717784918e-02,-9.265175718849839870e-02,7.028753993610223350e-02,8.697841726618705138e+00,2.038369304556355011e-01,3.412470023980815448e+00
1.510814895614151609e+00,-3.301384451544196047e-02,-8.306709265175718504e-02,7.028753993610223350e-02,8.693045563549160804e+00,1.774580335731414937e-01,3.448441247002397958e+00
1.515771634909785837e+00,-4.685835995740149362e-02,-8.200212992545261037e-02,6.709265175718849561e-02,8.678657074340527799e+00,1.103117505995203779e-01,3.474820143884892243e+00
1.520728374205420286e+00,-6.176783812566560145e-02,-8.093716719914803570e-02,5.750798722044728195e-02,8.690647482014387748e+00,4.076738609112710160e-02,3.494004796163069582e+00
1.525685113501054735e+00,-8.200212992545261037e-02,-8.093716719914803570e-02,4.579339723109691201e-02,8.767386091127098879e+00,1.438848920863309427e-02,3.467625899280575741e+00
1.530641852796689184e+00,-1.001064962726304630e-01,-7.880724174653887248e-02,2.981895633652822258e-02,8.796163069544364888e+00,3.357314148681055099e-02,3.446043165467625791e+00
1.535598592092323633e+00,-1.171458998935037271e-01,-7.561235356762513460e-02,1.916932907348242732e-02,8.829736211031175230e+00,3.836930455635491344e-02,3.462829736211030962e+00
1.540555331387958082e+00,-1.267305644302449408e-01,-6.815761448349308416e-02,8.519701810436635520e-03,8.872901678657074243e+00,-9.592326139088728360e-03,3.508393285371702586e+00
1.545512070683592531e+00,-1.320553780617678419e-01,-6.283280085197018305e-02,-4.259850905218317760e-03,8.872901678657074243e+00,-2.637889688249400386e-02,3.549160671462829875e+00
1.550468809979226981e+00,-1.299254526091586925e-01,-6.389776357827475772e-02,-1.277955271565495154e-02,8.832134292565946510e+00,2.877697841726618855e-02,3.565947242206235046e+00
1.555425549274861430e+00,-1.182108626198083018e-01,-6.389776357827475772e-02,-1.597444089456868943e-02,8.865707434052758629e+00,3.597122302158273222e-02,3.534772182254196426e+00
1.560382288570495879e+00,-1.011714589989350377e-01,-5.644302449414270728e-02,-1.171458998935037341e-02,8.947242206235012318e+00,2.158273381294964141e-02,3.501199040767386084e+00
1.565339027866130328e+00,-8.626198083067092293e-02,-4.579339723109691201e-02,-8.519701810436635520e-03,9.026378896882494729e+00,-1.438848920863309427e-02,3.496402877697841749e+00
1.570295767161764777e+00,-6.709265175718849561e-02,-3.727369542066027996e-02,-9.584664536741213658e-03,9.021582733812950394e+00,-7.194244604316546443e-02,3.573141486810551548e+00
1.575252506457399226e+00,-4.366347177848775574e-02,-3.088391906283280072e-02,-7.454739084132055646e-03,8.990407673860911331e+00,-7.434052757793764565e-02,3.565947242206235046e+00
1.580209245753033676e+00,-1.810436634717784918e-02,-2.981895633652822258e-02,-5.324813631522896766e-03,8.956834532374100988e+00,-1.007194244604316530e-01,3.606714628297361891e+00
1.585165985048668125e+00,7.454739084132055646e-03,-2.875399361022364098e-02,0.000000000000000000e+00,8.935251798561150594e+00,-7.913669064748200810e-02,3.630695443645084008e+00
1.590122724344302574e+00,3.301384451544196047e-02,-2.768903088391906284e-02,8.519701810436635520e-03,8.935251798561150594e+00,-7.913669064748200810e-02,3.585131894484412385e+00
1.595079463639937023e+00,4.898828541001064990e-02,-2.555910543130990309e-02,1.171458998935037341e-02,8.973621103117505271e+00,-1.199040767386091166e-01,3.532374100719424259e+00
1.600036202935571472e+00,5.644302449414270728e-02,-1.916932907348242732e-02,1.490947816826411129e-02,9.043165467625899012e+00,-9.592326139088729053e-02,3.563549160671462879e+00
1.604992942231205921e+00,5.857294994675186356e-02,-1.277955271565495154e-02,1.384451544195953142e-02,9.055155875299760737e+00,-9.352517985611510931e-02,3.594724220623501054e+00
1.609949681526840148e+00,5.750798722044728195e-02,-7.454739084132055646e-03,7.454739084132055646e-03,9.023980815347721673e+00,-9.112709832134292809e-02,3.625899280575539674e+00
1.614906420822474598e+00,5.324813631522896940e-02,-3.194888178913737886e-03,6.389776357827475772e-03,8.990407673860911331e+00,-8.872901678657074687e-02,3.645083932853717013e+00
1.619863160118109047e+00,4.898828541001064990e-02,-4.259850905218317760e-03,7.454739084132055646e-03,8.978417266187049606e+00,-8.393285371702638442e-02,3.702637889688249473e+00
1.624819899413743496e+00,4.046858359957401785e-02,-2.129925452609158880e-03,9.584664536741213658e-03,8.956834532374100988e+00,-9.112709832134292809e-02,3.705035971223021640e+00
1.629776638709377945e+00,2.875399361022364098e-02,-2.129925452609158880e-03,7.454739084132055646e-03,8.992805755395682610e+00,-1.606714628297362113e-01,3.702637889688249473e+00
1.634733378005012394e+00,1.597444089456868943e-02,-1.064962726304579440e-03,0.000000000000000000e+00,9.038369304556354678e+00,-2.038369304556355011e-01,3.673860911270983021e+00
1.639690117300646843e+00,1.064962726304579440e-03,2.129925452609158880e-03,-1.171458998935037341e-02,9.016786570743406060e+00,-1.966426858513189435e-01,3.695443645083932971e+00
1.644646856596281292e+00,-1.064962726304579353e-02,3.194888178913737886e-03,-2.236421725239616520e-02,8.973621103117505271e+00,-1.630695443645084064e-01,3.760191846522781933e+00
1.649603595891915742e+00,-2.236421725239616520e-02,7.454739084132055646e-03,-2.875399361022364098e-02,8.913669064748201976e+00,-1.990407673860911386e-01,3.784172661870503607e+00
1.654560335187550191e+00,-3.088391906283280072e-02,3.194888178913737886e-03,-3.194888178913737886e-02,8.884892086330935967e+00,-2.158273381294963933e-01,3.817745803357313950e+00
1.659517074483184640e+00,-3.833865814696485463e-02,-3.194888178913737886e-03,-3.727369542066027996e-02,8.911270983213428920e+00,-2.302158273381295084e-01,3.793764988009592276e+00
1.664473813778819089e+00,-3.833865814696485463e-02,-1.064962726304579353e-02,-4.579339723109691201e-02,8.930455635491606259e+00,-2.230215827338129508e-01,3.812949640287769615e+00
1.669430553074453538e+00,-4.259850905218317413e-02,-1.384451544195953142e-02,-4.685835995740149362e-02,8.928057553956834980e+00,-2.062350119904076684e-01,3.824940047961630896e+00
1.674387292370087987e+00,-4.366347177848775574e-02,-1.703940362087327104e-02,-4.792332268370606829e-02,8.913669064748201976e+00,-1.918465227817745811e-01,3.822541966426858728e+00
1.679344031665722436e+00,-4.579339723109691201e-02,-2.129925452609158706e-02,-5.111821086261980618e-02,8.908872901678657641e+00,-1.870503597122302186e-01,3.848920863309352569e+00
1.684300770961356886e+00,-5.111821086261980618e-02,-2.875399361022364098e-02,-5.111821086261980618e-02,8.906474820143884585e+00,-1.918465227817745811e-01,3.836930455635491732e+00
1.689257510256991335e+00,-5.537806176783812567e-02,-3.514376996805111675e-02,-5.537806176783812567e-02,8.860911270983214294e+00,-1.654676258992805737e-01,3.820143884892086117e+00
1.694214249552625784e+00,-5.963791267305644517e-02,-4.366347177848775574e-02,-6.070287539936101984e-02,8.836930455635490844e+00,-1.151079136690647542e-01,3.755395683453237599e+00
1.699170988848260233e+00,-7.135250266240682204e-02,-4.898828541001064990e-02,-5.857294994675186356e-02,8.841726618705035179e+00,-7.434052757793764565e-02,3.676258992805755188e+00
1.704127728143894682e+00,-8.413205537806177359e-02,-4.579339723109691201e-02,-5.857294994675186356e-02,8.906474820143884585e+00,-1.438848920863309427e-02,3.633093525179856176e+00
1.709084467439528909e+00,-1.022364217252396124e-01,-4.259850905218317413e-02,-5.963791267305644517e-02,8.961630695443645322e+00,0.000000000000000000e+00,3.575539568345323715e+00
1.714041206735163358e+00,-1.246006389776357776e-01,-3.514376996805111675e-02,-6.070287539936101984e-02,8.954436450839327932e+00,4.556354916067146404e-02,3.508393285371702586e+00
1.718997946030797808e+00,-1.458998935037273681e-01,-2.768903088391906284e-02,-5.644302449414270728e-02,8.944844124700239263e+00,1.247002398081534791e-01,3.402877697841726778e+00
1.723954685326432257e+00,-1.693290734824281218e-01,-1.277955271565495154e-02,-5.005324813631523151e-02,8.964028776978416602e+00,1.342925659472422040e-01,3.366906474820143824e+00
1.728911424622066706e+00,-1.895633652822151238e-01,7.454739084132055646e-03,-4.153354632587859252e-02,8.964028776978416602e+00,8.393285371702638442e-02,3.400479616306954611e+00
1.733868163917701155e+00,-2.034078807241746500e-01,2.449414270500532495e-02,-3.407880724174654208e-02,8.947242206235012318e+00,2.637889688249400386e-02,3.474820143884892243e+00
1.738824903213335604e+00,-2.183173588924387509e-01,3.194888178913737886e-02,-3.194888178913737886e-02,8.918465227817746310e+00,-1.199040767386091132e-02,3.551558752997602042e+00
1.743781642508970053e+00,-2.215122470713525027e-01,3.088391906283280072e-02,-2.449414270500532495e-02,8.860911270983214294e+00,-6.235011990407673954e-02,3.563549160671462879e+00
1.748738381804604503e+00,-2.183173588924387509e-01,3.620873269435569836e-02,-1.597444089456868943e-02,8.884892086330935967e+00,-9.112709832134292809e-02,3.587529976019184552e+00
1.753695121100238952e+00,-2.108626198083067005e-01,4.685835995740149362e-02,-8.519701810436635520e-03,8.940047961630694928e+00,-1.462829736211031240e-01,3.609112709832134502e+00
1.758651860395873401e+00,-2.066027689030884018e-01,5.324813631522896940e-02,-4.259850905218317760e-03,8.985611510791366996e+00,-1.846522781774580235e-01,3.678657074340527799e+00
1.763608599691507850e+00,-1.970181043663471743e-01,5.537806176783812567e-02,-6.389776357827475772e-03,8.964028776978416602e+00,-2.637889688249400733e-01,3.712230215827338142e+00
1.768565338987142299e+00,-1.906283280085196985e-01,5.963791267305644517e-02,-8.519701810436635520e-03,9.002398081534773056e+00,-3.141486810551558650e-01,3.755395683453237599e+00
1.773522078282776748e+00,-1.842385516506922227e-01,6.283280085197018305e-02,-1.810436634717784918e-02,8.997601918465226944e+00,-3.045563549160671402e-01,3.755395683453237599e+00
1.778478817578411197e+00,-1.789137380191693216e-01,6.389776357827475772e-02,-2.662406815761448470e-02,8.992805755395682610e+00,-3.141486810551558650e-01,3.776978417266187105e+00
1.783435556874045647e+00,-1.757188498402555976e-01,6.496272630457934627e-02,-3.194888178913737886e-02,8.992805755395682610e+00,-3.165467625899280324e-01,3.817745803357313950e+00
1.788392296169680096e+00,-1.725239616613418459e-01,6.602768903088392094e-02,-4.366347177848775574e-02,8.978417266187049606e+00,-3.261390887290168128e-01,3.841726618705036067e+00
1.793349035465314545e+00,-1.735889243876464205e-01,6.283280085197018305e-02,-5.750798722044728195e-02,9.004796163069544335e+00,-3.021582733812949728e-01,3.872901678657074243e+00
1.798305774760948994e+00,-1.757188498402555976e-01,6.176783812566560145e-02,-6.283280085197018305e-02,9.000000000000000000e+00,-2.541966426858512929e-01,3.851318944844124736e+00
1.803262514056583443e+00,-1.778487752928647470e-01,5.963791267305644517e-02,-6.602768903088392094e-02,8.985611510791366996e+00,-2.398081534772182333e-01,3.846522781774580402e+00
1.808219253352217670e+00,-1.767838125665601723e-01,6.070287539936101984e-02,-7.028753993610223350e-02,8.995203836930455665e+00,-2.086330935251798635e-01,3.808153477218225280e+00
1.813175992647852119e+00,-1.853035143769967974e-01,6.389776357827475772e-02,-7.135250266240682204e-02,8.997601918465226944e+00,-1.654676258992805737e-01,3.865707434052757741e+00
1.818132731943486569e+00,-1.895633652822151238e-01,6.283280085197018305e-02,-7.135250266240682204e-02,9.004796163069544335e+00,-1.678657074340527688e-01,3.889688249400479414e+00
1.823089471239121018e+00,-1.970181043663471743e-01,5.963791267305644517e-02,-7.348242811501597138e-02,8.980815347721822661e+00,-9.832134292565947176e-02,3.906474820143885029e+00
1.828046210534755467e+00,-2.066027689030884018e-01,5.537806176783812567e-02,-7.348242811501597138e-02,8.928057553956834980e+00,-5.755395683453237710e-02,3.947242206235011874e+00
1.833002949830389916e+00,-2.129925452609158776e-01,5.111821086261980618e-02,-6.922257720979765883e-02,8.918465227817746310e+00,-1.678657074340527550e-02,3.973621103117506159e+00
1.837959689126024365e+00,-2.225772097976570774e-01,4.153354632587859252e-02,-5.857294994675186356e-02,8.925659472422061924e+00,4.556354916067146404e-02,4.000000000000000000e+00
1.842916428421658814e+00,-2.321618743343983049e-01,2.981895633652822258e-02,-5.005324813631523151e-02,8.920863309352517589e+00,7.913669064748200810e-02,3.952038369304556209e+00
1.847873167717293263e+00,-2.470713525026624058e-01,2.023429179978700893e-02,-4.366347177848775574e-02,8.942446043165467984e+00,1.199040767386091166e-01,3.844124700239808234e+00
1.852829907012927713e+00,-2.609158679446219598e-01,1.277955271565495154e-02,-3.194888178913737886e-02,9.038369304556354678e+00,1.534772182254196538e-01,3.750599520383693264e+00
1.857786646308562162e+00,-2.800851970181043593e-01,1.703940362087327104e-02,-2.449414270500532495e-02,9.062350119904076351e+00,1.199040767386091166e-01,3.736211031175059816e+00
1.862743385604196611e+00,-3.035143769968051131e-01,2.342917997870074681e-02,-1.810436634717784918e-02,9.081534772182253690e+00,9.352517985611510931e-02,3.671462829736210853e+00
1.867700124899831060e+00,-3.237486687965921428e-01,3.088391906283280072e-02,-1.277955271565495154e-02,9.110311750599519698e+00,6.954436450839328321e-02,3.673860911270983021e+00
1.872656864195465509e+00,-3.407880724174653930e-01,3.833865814696485463e-02,-3.194888178913737886e-03,9.103117505995204084e+00,1.199040767386091132e-02,3.707434052757793808e+00
1.877613603491099958e+00,-3.503727369542066206e-01,4.366347177848775574e-02,6.389776357827475772e-03,9.083932853717026745e+00,-8.393285371702638442e-02,3.726618705035971146e+00
1.882570342786734408e+00,-3.567625133120340686e-01,4.792332268370606829e-02,1.064962726304579353e-02,9.052757793764987682e+00,-1.894484412470023860e-01,3.784172661870503607e+00
1.887527082082368857e+00,-3.599574014909477926e-01,4.685835995740149362e-02,1.277955271565495154e-02,9.062350119904076351e+00,-2.517985611510791255e-01,3.793764988009592276e+00
1.892483821378003306e+00,-3.556975505857294939e-01,4.792332268370606829e-02,1.171458998935037341e-02,9.055155875299760737e+00,-3.093525179856115304e-01,3.829736211031175230e+00
1.897440560673637755e+00,-3.471778487752928410e-01,4.579339723109691201e-02,1.384451544195953142e-02,9.035971223021583398e+00,-3.261390887290168128e-01,3.860911270983213406e+00
1.902397299969271982e+00,-3.397231096911608184e-01,4.259850905218317413e-02,1.277955271565495154e-02,9.055155875299760737e+00,-3.381294964028777050e-01,3.899280575539568527e+00
1.907354039264906431e+00,-3.333333333333333148e-01,4.472843450479233041e-02,1.064962726304579353e-02,9.055155875299760737e+00,-3.237410071942445899e-01,3.887290167865707247e+00
1.912310778560540880e+00,-3.301384451544195908e-01,3.940362087326943624e-02,7.454739084132055646e-03,9.023980815347721673e+00,-3.093525179856115304e-01,3.863309352517985573e+00
1.917267517856175330e+00,-3.343982960596378895e-01,3.620873269435569836e-02,4.259850905218317760e-03,9.035971223021583398e+00,-2.781774580335731328e-01,3.858513189448441238e+00
1.922224257151809779e+00,-3.418530351437699677e-01,3.301384451544196047e-02,-2.129925452609158880e-03,9.086330935251798024e+00,-2.637889688249400733e-01,3.796163069544364443e+00
1.927180996447444228e+00,-3.546325878594249192e-01,3.514376996805111675e-02,-9.584664536741213658e-03,9.091127098321342359e+00,-2.494004796163069582e-01,3.714628297362110310e+00
1.932137735743078677e+00,-3.695420660276890201e-01,4.472843450479233041e-02,-1.597444089456868943e-02,9.098321342925659749e+00,-2.326139088729016757e-01,3.752997601918465431e+00
1.937094475038713126e+00,-3.823216187433439717e-01,5.431309904153354406e-02,-2.236421725239616520e-02,9.076738609112709355e+00,-2.494004796163069582e-01,3.805755395683453113e+00
1.942051214334347575e+00,-3.951011714589989232e-01,5.963791267305644517e-02,-2.981895633652822258e-02,9.105515587529975363e+00,-3.285371702637889801e-01,3.827338129496403063e+00
1.947007953629982024e+00,-3.993610223642172774e-01,6.389776357827475772e-02,-3.940362087326943624e-02,9.112709832134292753e+00,-4.100719424460431695e-01,3.846522781774580402e+00
1.951964692925616474e+00,-4.014909478168264267e-01,6.922257720979765883e-02,-5.537806176783812567e-02,9.112709832134292753e+00,-4.988009592326139163e-01,3.872901678657074243e+00
1.956921432221250923e+00,-3.961661341853034979e-01,7.454739084132055993e-02,-7.454739084132055993e-02,9.100719424460431028e+00,-5.755395683453237154e-01,3.920863309352518034e+00
1.961878171516885372e+00,-3.823216187433439717e-01,7.454739084132055993e-02,-9.052183173588924936e-02,9.105515587529975363e+00,-6.402877697841726778e-01,3.990407673860911331e+00
1.966834910812519821e+00,-3.588924387646432179e-01,7.667731629392970927e-02,-1.075612353567625135e-01,9.117505995203837088e+00,-6.618705035971222950e-01,4.009592326139088669e+00
1.971791650108154270e+00,-3.312034078807241655e-01,7.667731629392970927e-02,-1.246006389776357776e-01,9.093525179856115415e+00,-6.450839328537170125e-01,4.028776978417266008e+00
1.976748389403788719e+00,-3.077742279020234117e-01,7.348242811501597138e-02,-1.405750798722044670e-01,9.088729016786571080e+00,-5.731414868105515481e-01,4.016786570743405171e+00
1.981705128699423168e+00,-2.864749733759318628e-01,7.028753993610223350e-02,-1.512247071352502692e-01,9.052757793764987682e+00,-4.604316546762590168e-01,3.940047961630695372e+00
1.986661867995057618e+00,-2.768903088391906353e-01,6.922257720979765883e-02,-1.576144834930777450e-01,9.040767386091127733e+00,-3.477218225419664299e-01,3.889688249400479414e+00
1.991618607290692067e+00,-2.790202342917997846e-01,6.922257720979765883e-02,-1.608093716719914690e-01,9.057553956834532016e+00,-2.589928057553956831e-01,3.858513189448441238e+00
1.996575346586326516e+00,-2.886048988285410122e-01,7.241746538871139671e-02,-1.650692225772097954e-01,9.040767386091127733e+00,-1.798561151079136611e-01,3.841726618705036067e+00
2.001532085881960743e+00,-3.045793397231096877e-01,7.667731629392970927e-02,-1.671991480298189447e-01,9.021582733812950394e+00,-1.007194244604316530e-01,3.863309352517985573e+00
2.006488825177595192e+00,-3.269435569755058668e-01,7.987220447284344715e-02,-1.661341853035143701e-01,8.940047961630694928e+00,-1.438848920863309427e-02,3.904076738609112862e+00
2.011445564473229641e+00,-3.482428115015974712e-01,8.093716719914803570e-02,-1.597444089456868943e-01,8.906474820143884585e+00,1.438848920863309427e-02,3.904076738609112862e+00
2.016402303768864090e+00,-3.727369542066027441e-01,7.774227902023429781e-02,-1.522896698615548439e-01,8.896882494004795916e+00,2.158273381294964141e-02,3.942446043165467540e+00
2.021359043064498540e+00,-3.951011714589989232e-01,7.561235356762513460e-02,-1.469648562300319428e-01,8.920863309352517589e+00,2.398081534772182090e-03,3.971223021582733992e+00
2.026315782360132989e+00,-4.185303514376996770e-01,7.241746538871139671e-02,-1.448349307774227934e-01,8.935251798561150594e+00,-1.918465227817745672e-02,3.956834532374100544e+00
2.031272521655767438e+00,-4.355697550585729272e-01,7.454739084132055993e-02,-1.427050053248136441e-01,8.916067146282973255e+00,-3.117505995203836977e-02,3.976019184652278327e+00
2.036229260951401887e+00,-4.430244941427050054e-01,7.454739084132055993e-02,-1.363152289669861683e-01,8.887290167865707247e+00,-8.393285371702638442e-02,3.980815347721822661e+00
2.041186000247036336e+00,-4.472843450479233041e-01,7.135250266240682204e-02,-1.277955271565495154e-01,8.894484412470024637e+00,-1.702637889688249362e-01,4.009592326139088669e+00
2.046142739542670785e+00,-4.483493077742278787e-01,7.028753993610223350e-02,-1.235356762513312029e-01,8.937649880095923649e+00,-2.446043165467625957e-01,4.047961630695443347e+00
2.051099478838304790e+00,-4.430244941427050054e-01,6.283280085197018305e-02,-1.267305644302449408e-01,8.932853717026379314e+00,-2.494004796163069582e-01,4.155875299760191766e+00
2.056056218133939240e+00,-4.334398296059637778e-01,5.005324813631523151e-02,-1.277955271565495154e-01,8.892086330935251581e+00,-2.014388489208633060e-01,4.119904076738609255e+00
2.061012957429573689e+00,-4.206602768903088263e-01,3.833865814696485463e-02,-1.214057507987220397e-01,8.865707434052758629e+00,-2.110311750599520308e-01,4.052757793764987682e+00
2.065969696725208138e+00,-4.078807241746538748e-01,3.301384451544196047e-02,-1.203407880724174650e-01,8.932853717026379314e+00,-2.086330935251798635e-01,3.928057553956834536e+00
2.070926436020842587e+00,-3.993610223642172774e-01,3.833865814696485463e-02,-1.192758253461128903e-01,8.973621103117505271e+00,-1.654676258992805737e-01,3.901678657074340695e+00
2.075883175316477036e+00,-3.951011714589989232e-01,4.046858359957401785e-02,-1.160809371671991524e-01,8.952038369304556653e+00,-8.872901678657074687e-02,3.882494004796162912e+00
2.080839914612111485e+00,-3.961661341853034979e-01,4.259850905218317413e-02,-1.139510117145899892e-01,8.964028776978416602e+00,-7.913669064748200810e-02,3.829736211031175230e+00
2.085796653907745934e+00,-4.004259850905218521e-01,4.792332268370606829e-02,-1.171458998935037271e-01,8.997601918465226944e+00,-9.832134292565947176e-02,3.784172661870503607e+00
2.090753393203380384e+00,-4.036208732694355761e-01,5.537806176783812567e-02,-1.246006389776357776e-01,8.976019184652278327e+00,-7.913669064748200810e-02,3.760191846522781933e+00
2.095710132499014833e+00,-4.068157614483493001e-01,6.389776357827475772e-02,-1.288604898828540901e-01,9.002398081534773056e+00,-5.755395683453237710e-02,3.757793764988009766e+00
2.100666871794649282e+00,-4.057507987220447254e-01,7.241746538871139671e-02,-1.309904153354632672e-01,9.028776978417266008e+00,-7.434052757793764565e-02,3.762589928057554101e+00
2.105623611090283731e+00,-4.078807241746538748e-01,8.626198083067092293e-02,-1.373801916932907430e-01,9.035971223021583398e+00,-9.112709832134292809e-02,3.812949640287769615e+00
2.110580350385918180e+00,-4.142705005324813783e-01,9.691160809371672513e-02,-1.437699680511182188e-01,9.047961630695443347e+00,-1.031175059952038342e-01,3.875299760191846410e+00
2.115537089681552629e+00,-4.174653887113951023e-01,9.797657082002129980e-02,-1.533546325878594185e-01,9.019184652278177339e+00,-1.223021582733812979e-01,3.932853717026378870e+00
2.120493828977187079e+00,-4.259850905218317552e-01,9.691160809371672513e-02,-1.629392971246006461e-01,9.028776978417266008e+00,-9.592326139088729053e-02,3.928057553956834536e+00
2.125450568272821528e+00,-4.323748668796592032e-01,9.797657082002129980e-02,-1.714589989350372712e-01,9.045563549160672068e+00,-5.275779376498800771e-02,3.908872901678657197e+00
2.130407307568455977e+00,-4.334398296059637778e-01,1.033013844515442009e-01,-1.725239616613418459e-01,9.035971223021583398e+00,-2.637889688249400386e-02,3.952038369304556209e+00
2.135364046864090426e+00,-4.345047923322683525e-01,1.075612353567625135e-01,-1.703940362087326965e-01,9.040767386091127733e+00,-1.007194244604316530e-01,4.014388489208633004e+00
2.140320786159724875e+00,-4.323748668796592032e-01,1.043663471778487756e-01,-1.767838125665601723e-01,9.062350119904076351e+00,-1.366906474820143991e-01,4.088729016786571080e+00
2.145277525455359324e+00,-4.313099041533546285e-01,9.584664536741213658e-02,-1.853035143769967974e-01,9.004796163069544335e+00,-1.462829736211031240e-01,4.141486810551558762e+00
2.150234264750993773e+00,-4.291799787007454792e-01,8.413205537806177359e-02,-1.991480298189563236e-01,8.980815347721822661e+00,-7.194244604316546443e-02,4.139088729016786594e+00
2.155191004046628223e+00,-4.238551650692225503e-01,7.454739084132055993e-02,-2.044728434504792247e-01,8.966426858513189657e+00,-2.398081534772182263e-02,4.105515587529976251e+00
2.160147743342262672e+00,-4.164004259850905276e-01,7.028753993610223350e-02,-2.055378061767837994e-01,8.973621103117505271e+00,-4.796163069544364180e-03,4.100719424460431917e+00
2.165104482637897121e+00,-4.089456869009584494e-01,6.496272630457934627e-02,-2.097976570820021258e-01,8.995203836930455665e+00,1.918465227817745672e-02,4.031175059952038175e+00
2.170061221933531570e+00,-4.057507987220447254e-01,6.070287539936101984e-02,-2.183173588924387509e-01,9.002398081534773056e+00,4.556354916067146404e-02,3.959232613908872711e+00
2.175017961229166019e+00,-4.046858359957401508e-01,5.857294994675186356e-02,-2.247071352502662545e-01,8.988009592326138275e+00,1.390887290167865664e-01,3.918465227817745866e+00
2.179974700524800468e+00,-4.025559105431310014e-01,6.389776357827475772e-02,-2.268370607028754038e-01,9.031175059952039064e+00,1.966426858513189435e-01,3.889688249400479414e+00
2.184931439820434917e+00,-3.972310969116080726e-01,7.241746538871139671e-02,-2.225772097976570774e-01,9.059952038369305072e+00,1.726618705035971313e-01,3.860911270983213406e+00
2.189888179116069367e+00,-3.897763578274760499e-01,8.200212992545261037e-02,-2.215122470713525027e-01,9.088729016786571080e+00,1.462829736211031240e-01,3.892086330935251581e+00
2.194844918411703816e+00,-3.812566560170393970e-01,9.052183173588924936e-02,-2.215122470713525027e-01,9.088729016786571080e+00,1.151079136690647542e-01,3.980815347721822661e+00
2.199801657707338265e+00,-3.716719914802981695e-01,8.945686900958466081e-02,-2.268370607028754038e-01,9.071942446043165020e+00,8.633093525179856564e-02,4.076738609112710243e+00
2.204758397002972714e+00,-3.578274760383386432e-01,8.519701810436634826e-02,-2.342917997870074542e-01,9.062350119904076351e+00,6.954436450839328321e-02,4.146282973621103096e+00
2.209715136298607163e+00,-3.439829605963791170e-01,7.987220447284344715e-02,-2.417465388711395047e-01,9.071942446043165020e+00,5.035971223021582649e-02,4.170263788968824770e+00
2.214671875594241612e+00,-3.301384451544195908e-01,7.135250266240682204e-02,-2.513312034078807322e-01,9.095923261390886694e+00,2.877697841726618855e-02,4.129496402877697925e+00
2.219628614889876062e+00,-3.130990415335463406e-01,6.496272630457934627e-02,-2.651757188498402584e-01,9.107913669064748419e+00,7.434052757793764565e-02,4.055155875299759849e+00
2.224585354185510511e+00,-3.003194888178913891e-01,6.496272630457934627e-02,-2.800851970181043593e-01,9.100719424460431028e+00,1.486810551558752913e-01,4.040767386091126845e+00
2.229542093481144960e+00,-2.875399361022364375e-01,6.496272630457934627e-02,-2.917997870074547362e-01,9.098321342925659749e+00,2.206235011990407557e-01,4.040767386091126845e+00
2.234498832776779409e+00,-2.758253461128860606e-01,6.389776357827475772e-02,-3.013844515441959637e-01,9.067146282973620686e+00,3.189448441247002553e-01,3.985611510791366996e+00
2.239455572072413858e+00,-2.641107561235356838e-01,6.602768903088392094e-02,-3.099041533546325611e-01,9.081534772182253690e+00,4.436450839328537343e-01,3.892086330935251581e+00
2.244412311368047863e+00,-2.577209797657081802e-01,7.241746538871139671e-02,-3.141640042598509153e-01,9.088729016786571080e+00,5.683453237410072134e-01,3.772182254196642770e+00
2.249369050663682312e+00,-2.555910543130990309e-01,8.519701810436634826e-02,-3.120340788072417659e-01,9.043165467625899012e+00,6.786570743405275774e-01,3.705035971223021640e+00
2.254325789959316761e+00,-2.587859424920127549e-01,1.001064962726304630e-01,-3.045793397231096877e-01,9.052757793764987682e+00,7.817745803357314394e-01,3.673860911270983021e+00
2.259282529254951211e+00,-2.673056443024494078e-01,1.139510117145899892e-01,-2.949946751863684602e-01,9.026378896882494729e+00,8.609112709832134058e-01,3.748201438848920652e+00
2.264239268550585660e+00,-2.736954206602769113e-01,1.267305644302449408e-01,-2.832800851970180833e-01,9.016786570743406060e+00,8.657074340527577405e-01,3.815347721822541782e+00
2.269196007846220109e+00,-2.822151224707135087e-01,1.363152289669861683e-01,-2.705005324813631318e-01,8.973621103117505271e+00,8.201438848920863389e-01,3.959232613908872711e+00
2.274152747141854558e+00,-2.832800851970180833e-01,1.395101171458998923e-01,-2.587859424920127549e-01,8.940047961630694928e+00,8.273381294964028410e-01,4.050359712230215514e+00
2.279109486437489007e+00,-2.822151224707135087e-01,1.395101171458998923e-01,-2.470713525026624058e-01,8.940047961630694928e+00,8.033573141486810565e-01,4.139088729016786594e+00
2.284066225733123456e+00,-2.811501597444089340e-01,1.309904153354632672e-01,-2.342917997870074542e-01,8.894484412470024637e+00,7.913669064748201087e-01,4.211031175059951615e+00
2.289022965028757906e+00,-2.811501597444089340e-01,1.235356762513312029e-01,-2.183173588924387509e-01,8.860911270983214294e+00,7.937649880095922761e-01,4.287769784172661858e+00
2.293979704324392355e+00,-2.790202342917997846e-01,1.128860489882854146e-01,-2.076677316293929765e-01,8.875299760191847298e+00,7.553956834532373765e-01,4.354916067146282543e+00
2.298936443620026804e+00,-2.758253461128860606e-01,9.584664536741213658e-02,-2.012779552715655007e-01,8.894484412470024637e+00,7.529976019184652092e-01,4.316546762589927866e+00
2.303893182915661253e+00,-2.790202342917997846e-01,8.093716719914803570e-02,-1.948881789137380249e-01,8.880095923261391633e+00,8.273381294964028410e-01,4.299760191846522694e+00
2.308849922211295702e+00,-2.768903088391906353e-01,7.028753993610223350e-02,-1.831735889243876481e-01,8.875299760191847298e+00,9.064748201438849184e-01,4.297362110311750527e+00
2.313806661506930151e+00,-2.747603833865814860e-01,6.496272630457934627e-02,-1.640042598509052207e-01,8.894484412470024637e+00,8.729016786570743536e-01,4.333333333333333037e+00
2.318763400802564600e+00,-2.673056443024494078e-01,5.431309904153354406e-02,-1.512247071352502692e-01,8.930455635491606259e+00,7.913669064748201087e-01,4.386091127098321607e+00
2.323720140098199050e+00,-2.651757188498402584e-01,4.259850905218317413e-02,-1.437699680511182188e-01,8.971223021582733992e+00,7.529976019184652092e-01,4.410071942446043280e+00
2.328676879393833499e+00,-2.587859424920127549e-01,2.875399361022364098e-02,-1.373801916932907430e-01,8.928057553956834980e+00,8.129496402877698369e-01,4.398081534772182444e+00
2.333633618689467948e+00,-2.470713525026624058e-01,1.703940362087327104e-02,-1.224707135250266282e-01,8.872901678657074243e+00,8.729016786570743536e-01,4.347721822541966041e+00
2.338590357985102397e+00,-2.342917997870074542e-01,8.519701810436635520e-03,-1.043663471778487756e-01,8.894484412470024637e+00,8.441247002398081234e-01,4.314148681055155699e+00
2.343547097280736846e+00,-2.215122470713525027e-01,3.194888178913737886e-03,-8.732694355697551147e-02,8.944844124700239263e+00,8.081534772182253912e-01,4.270983213429256686e+00
2.348503836576371295e+00,-2.108626198083067005e-01,0.000000000000000000e+00,-7.135250266240682204e-02,8.964028776978416602e+00,7.769784172661871047e-01,4.321342925659472201e+00
2.353460575872005744e+00,-2.002129925452609260e-01,-7.454739084132055646e-03,-6.070287539936101984e-02,8.959232613908872267e+00,7.482014388489208745e-01,4.354916067146282543e+00
2.358417315167640194e+00,-1.863684771033013721e-01,-1.703940362087327104e-02,-5.005324813631523151e-02,8.947242206235012318e+00,6.978417266187050272e-01,4.318944844124700033e+00
2.363374054463274643e+00,-1.735889243876464205e-01,-2.449414270500532495e-02,-3.620873269435569836e-02,9.000000000000000000e+00,6.546762589928057929e-01,4.199040767386090778e+00
2.368330793758909092e+00,-1.608093716719914690e-01,-2.449414270500532495e-02,-2.981895633652822258e-02,9.023980815347721673e+00,6.354916067146283432e-01,4.129496402877697925e+00
2.373287533054543541e+00,-1.522896698615548439e-01,-2.129925452609158706e-02,-2.449414270500532495e-02,9.011990407673861725e+00,5.947242206235011652e-01,4.189448441247002108e+00
2.378244272350177990e+00,-1.437699680511182188e-01,-2.129925452609158706e-02,-1.916932907348242732e-02,9.014388489208633004e+00,5.587529976019184330e-01,4.278177458033573188e+00
2.383201011645812439e+00,-1.363152289669861683e-01,-2.449414270500532495e-02,-1.703940362087327104e-02,9.023980815347721673e+00,5.251798561151078681e-01,4.280575539568345356e+00
2.388157750941446889e+00,-1.320553780617678419e-01,-3.407880724174654208e-02,-2.023429179978700893e-02,8.988009592326138275e+00,5.107913669064748641e-01,4.258992805755395850e+00
2.393114490237081338e+00,-1.288604898828540901e-01,-3.940362087326943624e-02,-2.129925452609158706e-02,8.930455635491606259e+00,5.851318944844124958e-01,4.211031175059951615e+00
2.398071229532715787e+00,-1.277955271565495154e-01,-4.579339723109691201e-02,-1.597444089456868943e-02,8.918465227817746310e+00,6.402877697841726778e-01,4.172661870503596937e+00
2.403027968828350236e+00,-1.267305644302449408e-01,-5.005324813631523151e-02,-6.389776357827475772e-03,8.944844124700239263e+00,6.378896882494005105e-01,4.117505995203837088e+00
2.407984708123984685e+00,-1.267305644302449408e-01,-4.898828541001064990e-02,-1.064962726304579440e-03,8.952038369304556653e+00,6.091127098321342803e-01,4.093525179856115415e+00
2.412941447419619134e+00,-1.309904153354632672e-01,-4.898828541001064990e-02,3.194888178913737886e-03,8.930455635491606259e+00,6.211031175059952281e-01,4.067146282973620686e+00
2.417898186715253583e+00,-1.352502662406815659e-01,-5.005324813631523151e-02,1.064962726304579353e-02,8.875299760191847298e+00,6.258992805755395628e-01,4.043165467625899012e+00
2.422854926010888033e+00,-1.373801916932907430e-01,-4.792332268370606829e-02,1.916932907348242732e-02,8.889688249400480302e+00,5.971223021582733326e-01,4.026378896882493841e+00
2.427811665306522482e+00,-1.363152289669861683e-01,-4.579339723109691201e-02,2.662406815761448470e-02,8.901678657074340251e+00,4.964028776978417490e-01,4.047961630695443347e+00
2.432768404602156931e+00,-1.288604898828540901e-01,-4.259850905218317413e-02,3.088391906283280072e-02,8.887290167865707247e+00,3.980815347721822772e-01,4.081534772182254578e+00
2.437725143897791380e+00,-1.224707135250266282e-01,-4.259850905218317413e-02,3.088391906283280072e-02,8.920863309352517589e+00,3.117505995203836977e-01,4.110311750599520586e+00
2.442681883193425385e+00,-1.118210862619808260e-01,-4.259850905218317413e-02,2.768903088391906284e-02,8.932853717026379314e+00,2.901678657074340251e-01,4.047961630695443347e+00
2.447638622489059834e+00,-9.691160809371672513e-02,-4.472843450479233041e-02,2.342917997870074681e-02,8.884892086330935967e+00,2.733812949640287981e-01,3.985611510791366996e+00
2.452595361784694283e+00,-8.306709265175718504e-02,-4.153354632587859252e-02,2.342917997870074681e-02,8.904076738609113306e+00,2.446043165467625957e-01,3.952038369304556209e+00
2.457552101080328733e+00,-7.028753993610223350e-02,-3.407880724174654208e-02,2.342917997870074681e-02,8.947242206235012318e+00,2.206235011990407557e-01,3.976019184652278327e+00
2.462508840375963182e+00,-5.963791267305644517e-02,-2.768903088391906284e-02,1.810436634717784918e-02,8.983213429256593940e+00,1.654676258992805737e-01,3.990407673860911331e+00
2.467465579671597631e+00,-5.537806176783812567e-02,-2.768903088391906284e-02,1.064962726304579353e-02,8.976019184652278327e+00,1.918465227817745811e-01,3.966426858513189657e+00
2.472422318967232080e+00,-5.005324813631523151e-02,-2.768903088391906284e-02,3.194888178913737886e-03,8.949640287769783598e+00,2.685851318944844079e-01,3.940047961630695372e+00
2.477379058262866529e+00,-4.579339723109691201e-02,-2.236421725239616520e-02,0.000000000000000000e+00,8.822541966426857840e+00,3.213429256594724226e-01,3.906474820143885029e+00
2.482335797558500978e+00,-3.940362087326943624e-02,-1.171458998935037341e-02,5.324813631522896766e-03,8.784172661870503163e+00,2.949640287769784153e-01,3.971223021582733992e+00
2.487292536854135427e+00,-2.662406815761448470e-02,-9.584664536741213658e-03,1.064962726304579353e-02,8.781774580335731883e+00,2.302158273381295084e-01,4.057553956834532016e+00
2.492249276149769877e+00,-1.916932907348242732e-02,-1.703940362087327104e-02,7.454739084132055646e-03,8.810551558752997892e+00,1.846522781774580235e-01,4.098321342925659749e+00
2.497206015445404326e+00,-1.384451544195953142e-02,-2.449414270500532495e-02,-1.064962726304579440e-03,8.820143884892086561e+00,2.254196642685851182e-01,4.000000000000000000e+00
2.502162754741038775e+00,-9.584664536741213658e-03,-2.449414270500532495e-02,-5.324813631522896766e-03,8.772182254196643214e+00,3.333333333333333148e-01,3.904076738609112862e+00
2.507119494036673224e+00,-1.064962726304579353e-02,-2.023429179978700893e-02,-1.064962726304579440e-03,8.779376498800958828e+00,3.908872901678657197e-01,3.836930455635491732e+00
2.512076233332307673e+00,-9.584664536741213658e-03,-1.064962726304579353e-02,6.389776357827475772e-03,8.829736211031175230e+00,3.525179856115107646e-01,3.776978417266187105e+00
2.517032972627942122e+00,-1.384451544195953142e-02,0.000000000000000000e+00,9.584664536741213658e-03,8.853717026378896904e+00,2.781774580335731328e-01,3.764988009592326268e+00
2.521989711923576571e+00,-1.810436634717784918e-02,7.454739084132055646e-03,2.129925452609158880e-03,8.896882494004795916e+00,2.158273381294963933e-01,3.808153477218225280e+00
2.526946451219211021e+00,-2.236421725239616520e-02,1.703940362087327104e-02,-3.194888178913737886e-03,8.856115107913668183e+00,2.014388489208633060e-01,3.796163069544364443e+00
2.531903190514845470e+00,-2.236421725239616520e-02,2.236421725239616520e-02,-1.064962726304579440e-03,8.805755395683453557e+00,1.894484412470023860e-01,3.817745803357313950e+00
2.536859929810479919e+00,-2.023429179978700893e-02,2.981895633652822258e-02,-1.064962726304579440e-03,8.800959232613909222e+00,1.414868105515587615e-01,3.884892086330935079e+00
2.541816669106114368e+00,-2.236421725239616520e-02,3.194888178913737886e-02,-7.454739084132055646e-03,8.788968824940047497e+00,4.556354916067146404e-02,3.978417266187050494e+00
2.546773408401748817e+00,-2.236421725239616520e-02,2.875399361022364098e-02,-1.597444089456868943e-02,8.736211031175059816e+00,1.199040767386091132e-02,4.007194244604316502e+00
2.551730147697383266e+00,-2.023429179978700893e-02,2.129925452609158706e-02,-2.662406815761448470e-02,8.717026378896882477e+00,5.515587529976018893e-02,3.949640287769784042e+00
2.556686886993017715e+00,-1.810436634717784918e-02,1.703940362087327104e-02,-3.088391906283280072e-02,8.697841726618705138e+00,5.755395683453237710e-02,3.875299760191846410e+00
2.561643626288652165e+00,-1.384451544195953142e-02,2.023429179978700893e-02,-3.514376996805111675e-02,8.707434052757793808e+00,7.194244604316546443e-02,3.815347721822541782e+00
2.566600365584286614e+00,-1.064962726304579353e-02,2.449414270500532495e-02,-3.940362087326943624e-02,8.731414868105515481e+00,8.393285371702638442e-02,3.815347721822541782e+00
2.571557104879921063e+00,-6.389776357827475772e-03,2.981895633652822258e-02,-4.153354632587859252e-02,8.750599520383692820e+00,7.913669064748200810e-02,3.860911270983213406e+00
2.576513844175555512e+00,-5.324813631522896766e-03,3.407880724174654208e-02,-4.579339723109691201e-02,8.755395683453237154e+00,6.474820143884892076e-02,3.839328537170263900e+00
2.581470583471189961e+00,-3.194888178913737886e-03,4.153354632587859252e-02,-5.005324813631523151e-02,8.791366906474820553e+00,7.913669064748200810e-02,3.803357314148680945e+00
2.586427322766824410e+00,-2.129925452609158880e-03,4.792332268370606829e-02,-5.324813631522896940e-02,8.803357314148680501e+00,1.414868105515587615e-01,3.738609112709831983e+00
2.591384062062458860e+00,-5.324813631522896766e-03,5.750798722044728195e-02,-5.111821086261980618e-02,8.829736211031175230e+00,1.510791366906474864e-01,3.733812949640287648e+00
2.596340801358093309e+00,-5.324813631522896766e-03,7.028753993610223350e-02,-4.685835995740149362e-02,8.836930455635490844e+00,1.103117505995203779e-01,3.741007194244604150e+00
2.601297540653727758e+00,-7.454739084132055646e-03,8.306709265175718504e-02,-4.472843450479233041e-02,8.841726618705035179e+00,9.592326139088729053e-02,3.762589928057554101e+00
2.606254279949362207e+00,-1.490947816826411129e-02,9.265175718849839870e-02,-4.685835995740149362e-02,8.822541966426857840e+00,1.007194244604316530e-01,3.815347721822541782e+00
2.611211019244996656e+00,-1.916932907348242732e-02,9.797657082002129980e-02,-4.579339723109691201e-02,8.844124700239808234e+00,1.007194244604316530e-01,3.844124700239808234e+00
2.616167758540631105e+00,-1.916932907348242732e-02,9.904153354632587447e-02,-4.472843450479233041e-02,8.829736211031175230e+00,1.127098321342925591e-01,3.829736211031175230e+00
2.621124497836265554e+00,-1.597444089456868943e-02,1.043663471778487756e-01,-4.153354632587859252e-02,8.796163069544364888e+00,9.352517985611510931e-02,3.798561151079136611e+00
2.626081237131900004e+00,-1.171458998935037341e-02,1.150159744408945639e-01,-3.620873269435569836e-02,8.764988009592325824e+00,7.673860911270982688e-02,3.856115107913669071e+00
2.631037976427534453e+00,-4.259850905218317760e-03,1.203407880724174650e-01,-2.662406815761448470e-02,8.786570743405276218e+00,1.678657074340527550e-02,3.961630695443644878e+00
2.635994715723168458e+00,7.454739084132055646e-03,1.182108626198083018e-01,-2.342917997870074681e-02,8.796163069544364888e+00,-4.796163069544364527e-02,4.021582733812949506e+00
2.640951455018802907e+00,2.662406815761448470e-02,1.075612353567625135e-01,-1.810436634717784918e-02,8.736211031175059816e+00,-1.055155875299760154e-01,4.023980815347721673e+00
2.645908194314437356e+00,5.005324813631523151e-02,9.584664536741213658e-02,-1.064962726304579353e-02,8.733812949640288537e+00,-9.112709832134292809e-02,3.956834532374100544e+00
2.650864933610071805e+00,6.709265175718849561e-02,9.052183173588924936e-02,-1.064962726304579440e-03,8.760191846522781489e+00,-6.235011990407673954e-02,3.913669064748201532e+00
2.655821672905706254e+00,8.093716719914803570e-02,9.052183173588924936e-02,8.519701810436635520e-03,8.815347721822542226e+00,-5.515587529976018893e-02,3.884892086330935079e+00
2.660778412201340704e+00,8.732694355697551147e-02,8.732694355697551147e-02,2.023429179978700893e-02,8.844124700239808234e+00,-5.995203836930455832e-02,3.841726618705036067e+00
2.665735151496975153e+00,8.413205537806177359e-02,8.732694355697551147e-02,2.449414270500532495e-02,8.834532374100719565e+00,-3.836930455635491344e-02,3.815347721822541782e+00
2.670691890792609602e+00,6.815761448349308416e-02,8.519701810436634826e-02,2.342917997870074681e-02,8.810551558752997892e+00,-4.796163069544364527e-02,3.748201438848920652e+00
2.675648630088244051e+00,4.366347177848775574e-02,8.519701810436634826e-02,2.342917997870074681e-02,8.791366906474820553e+00,-2.637889688249400386e-02,3.707434052757793808e+00
2.680605369383878500e+00,1.703940362087327104e-02,8.732694355697551147e-02,2.342917997870074681e-02,8.820143884892086561e+00,-4.076738609112710160e-02,3.685851318944844301e+00
2.685562108679512949e+00,-1.171458998935037341e-02,9.158679446219382403e-02,2.236421725239616520e-02,8.827338129496402175e+00,-9.832134292565947176e-02,3.654676258992805682e+00
2.690518847975147398e+00,-4.898828541001064990e-02,9.478168264110756192e-02,1.597444089456868943e-02,8.803357314148680501e+00,-1.678657074340527688e-01,3.724220623501198979e+00
2.695475587270781848e+00,-8.519701810436634826e-02,9.584664536741213658e-02,3.194888178913737886e-03,8.784172661870503163e+00,-2.709832134292565753e-01,3.832134292565947398e+00
2.700432326566416297e+00,-1.182108626198083018e-01,9.158679446219382403e-02,-1.490947816826411129e-02,8.834532374100719565e+00,-3.573141486810551548e-01,3.889688249400479414e+00
2.705389065862050746e+00,-1.469648562300319428e-01,8.626198083067092293e-02,-3.833865814696485463e-02,8.858513189448441238e+00,-4.172661870503597270e-01,3.906474820143885029e+00
2.710345805157685195e+00,-1.661341853035143701e-01,7.880724174653887248e-02,-6.283280085197018305e-02,8.884892086330935967e+00,-5.011990407673860837e-01,3.908872901678657197e+00
2.715302544453319644e+00,-1.778487752928647470e-01,7.561235356762513460e-02,-8.519701810436634826e-02,8.954436450839327932e+00,-5.539568345323740983e-01,3.894484412470024193e+00
2.720259283748954093e+00,-1.821086261980830734e-01,7.241746538871139671e-02,-1.075612353567625135e-01,9.033573141486810343e+00,-5.515587529976019310e-01,3.846522781774580402e+00
2.725216023044588542e+00,-1.842385516506922227e-01,7.241746538871139671e-02,-1.320553780617678419e-01,9.095923261390886694e+00,-5.707434052757793808e-01,3.827338129496403063e+00
2.730172762340222992e+00,-1.746538871139510229e-01,7.135250266240682204e-02,-1.565495207667731703e-01,9.062350119904076351e+00,-5.467625899280575963e-01,3.827338129496403063e+00
2.735129501635857441e+00,-1.629392971246006461e-01,7.348242811501597138e-02,-1.757188498402555976e-01,9.045563549160672068e+00,-5.035971223021582510e-01,3.772182254196642770e+00
2.740086240931491890e+00,-1.469648562300319428e-01,7.880724174653887248e-02,-1.906283280085196985e-01,9.093525179856115415e+00,-4.940047961630695261e-01,3.697841726618705138e+00
2.745042980227126339e+00,-1.288604898828540901e-01,8.732694355697551147e-02,-2.076677316293929765e-01,9.122302158273381423e+00,-4.172661870503597270e-01,3.637889688249400511e+00
2.749999719522760788e+00,-1.128860489882854146e-01,1.001064962726304630e-01,-2.225772097976570774e-01,9.095923261390886694e+00,-3.597122302158273222e-01,3.657074340527577849e+00
2.754956458818395237e+00,-9.797657082002129980e-02,1.128860489882854146e-01,-2.342917997870074542e-01,9.105515587529975363e+00,-3.285371702637889801e-01,3.637889688249400511e+00
2.759913198114029687e+00,-8.626198083067092293e-02,1.192758253461128903e-01,-2.502662406815761575e-01,9.095923261390886694e+00,-2.949640287769784153e-01,3.613908872901678837e+00
2.764869937409664136e+00,-7.561235356762513460e-02,1.277955271565495154e-01,-2.662406815761448331e-01,9.062350119904076351e+00,-1.966426858513189435e-01,3.575539568345323715e+00
2.769826676705298585e+00,-6.815761448349308416e-02,1.416400425985090417e-01,-2.779552715654952100e-01,9.021582733812950394e+00,-1.055155875299760154e-01,3.570743405275779381e+00
2.774783416000933034e+00,-6.070287539936101984e-02,1.544195953141639932e-01,-2.875399361022364375e-01,8.995203836930455665e+00,-2.398081534772182263e-02,3.561151079136690711e+00
2.779740155296567483e+00,-6.176783812566560145e-02,1.661341853035143701e-01,-2.960596379126730349e-01,9.038369304556354678e+00,1.918465227817745672e-02,3.611510791366906670e+00
2.784696894592201932e+00,-6.283280085197018305e-02,1.746538871139510229e-01,-3.077742279020234117e-01,9.014388489208633004e+00,6.474820143884892076e-02,3.628297362110311841e+00
2.789653633887836381e+00,-6.922257720979765883e-02,1.831735889243876481e-01,-3.216187433439829380e-01,8.976019184652278327e+00,1.822541966426858562e-01,3.657074340527577849e+00
2.794610373183470831e+00,-7.241746538871139671e-02,1.938232161874334503e-01,-3.301384451544195908e-01,8.925659472422061924e+00,2.949640287769784153e-01,3.659472422062350017e+00
2.799567112479105280e+00,-7.774227902023429781e-02,2.076677316293929765e-01,-3.312034078807241655e-01,8.899280575539568972e+00,3.908872901678657197e-01,3.695443645083932971e+00
2.804523851774739729e+00,-8.093716719914803570e-02,2.183173588924387509e-01,-3.301384451544195908e-01,8.918465227817746310e+00,3.956834532374100544e-01,3.772182254196642770e+00
2.809480591070374178e+00,-8.626198083067092293e-02,2.257720979765708291e-01,-3.301384451544195908e-01,8.968824940047960936e+00,3.836930455635491621e-01,3.841726618705036067e+00
2.814437330366008627e+00,-8.945686900958466081e-02,2.279020234291799785e-01,-3.343982960596378895e-01,8.949640287769783598e+00,4.100719424460431695e-01,3.908872901678657197e+00
2.819394069661643076e+00,-8.945686900958466081e-02,2.310969116080937302e-01,-3.407880724174653930e-01,8.906474820143884585e+00,5.155875299760191988e-01,3.952038369304556209e+00
2.824350808957277525e+00,-8.626198083067092293e-02,2.353567625133120289e-01,-3.354632587859425197e-01,8.812949640287769171e+00,6.306954436450838974e-01,4.031175059952038175e+00
2.829307548252911975e+00,-7.880724174653887248e-02,2.374866879659212060e-01,-3.205537806176783633e-01,8.762589928057554545e+00,7.002398081534771945e-01,4.119904076738609255e+00
2.834264287548545980e+00,-6.922257720979765883e-02,2.342917997870074542e-01,-3.035143769968051131e-01,8.767386091127098879e+00,7.242206235011990900e-01,4.223021582733813339e+00
2.839221026844180429e+00,-5.857294994675186356e-02,2.236421725239616520e-01,-2.907348242811501615e-01,8.736211031175059816e+00,7.505995203836930418e-01,4.287769784172661858e+00
2.844177766139814878e+00,-4.579339723109691201e-02,2.119275825346112752e-01,-2.758253461128860606e-01,8.697841726618705138e+00,8.153477218225420042e-01,4.328537170263788703e+00
2.849134505435449327e+00,-3.514376996805111675e-02,1.980830670926517489e-01,-2.555910543130990309e-01,8.637889688249400066e+00,8.920863309352518034e-01,4.328537170263788703e+00
2.854091244731083776e+00,-2.555910543130990309e-02,1.853035143769967974e-01,-2.310969116080937302e-01,8.695443645083932083e+00,9.208633093525180335e-01,4.333333333333333037e+00
2.859047984026718225e+00,-2.342917997870074681e-02,1.789137380191693216e-01,-2.108626198083067005e-01,8.767386091127098879e+00,9.712230215827337698e-01,4.311750599520383531e+00
2.864004723322352675e+00,-2.236421725239616520e-02,1.714589989350372712e-01,-1.916932907348242732e-01,8.781774580335731883e+00,1.002398081534772167e+00,4.395683453237410276e+00
2.868961462617987124e+00,-2.555910543130990309e-02,1.565495207667731703e-01,-1.725239616613418459e-01,8.762589928057554545e+00,1.055155875299760293e+00,4.414868105515587615e+00
2.873918201913621573e+00,-3.088391906283280072e-02,1.437699680511182188e-01,-1.480298189563365174e-01,8.836930455635490844e+00,1.139088729016786594e+00,4.374100719424460770e+00
2.878874941209256022e+00,-4.046858359957401785e-02,1.416400425985090417e-01,-1.267305644302449408e-01,8.906474820143884585e+00,1.235011990407673954e+00,4.333333333333333037e+00
2.883831680504890471e+00,-5.750798722044728195e-02,1.448349307774227934e-01,-1.022364217252396124e-01,8.904076738609113306e+00,1.318944844124700255e+00,4.407673860911271113e+00
2.888788419800524920e+00,-7.561235356762513460e-02,1.469648562300319428e-01,-7.667731629392970927e-02,8.877697841726618577e+00,1.431654676258992787e+00,4.532374100719424703e+00
2.893745159096159369e+00,-9.691160809371672513e-02,1.395101171458998923e-01,-4.792332268370606829e-02,8.882494004796162912e+00,1.426858513189448452e+00,4.640287769784172234e+00
2.898701898391793819e+00,-1.192758253461128903e-01,1.299254526091586925e-01,-2.236421725239616520e-02,8.896882494004795916e+00,1.400479616306954389e+00,4.709832134292565975e+00
2.903658637687428268e+00,-1.373801916932907430e-01,1.182108626198083018e-01,-2.129925452609158880e-03,8.839328537170263900e+00,1.388489208633093552e+00,4.812949640287770059e+00
2.908615376983062717e+00,-1.458998935037273681e-01,1.064962726304579388e-01,2.129925452609158706e-02,8.750599520383692820e+00,1.364508393285371657e+00,4.964028776978417490e+00
2.913572116278697166e+00,-1.437699680511182188e-01,8.945686900958466081e-02,5.111821086261980618e-02,8.705035971223020752e+00,1.311750599520383753e+00,5.095923261390887582e+00
2.918528855574331615e+00,-1.331203407880724165e-01,6.496272630457934627e-02,7.774227902023429781e-02,8.681055155875299079e+00,1.237410071942446121e+00,5.184652278177457774e+00
2.923485594869966064e+00,-1.107561235356762513e-01,3.407880724174654208e-02,1.054313099041533502e-01,8.637889688249400066e+00,1.153477218225419598e+00,5.208633093525179447e+00
2.928442334165600514e+00,-8.626198083067092293e-02,3.194888178913737886e-03,1.320553780617678419e-01,8.671462829736210409e+00,1.119904076738609033e+00,5.177458033573141272e+00
2.933399073461234963e+00,-6.496272630457934627e-02,-2.662406815761448470e-02,1.586794462193823196e-01,8.697841726618705138e+00,1.139088729016786594e+00,5.079136690647482411e+00
2.938355812756869412e+00,-4.792332268370606829e-02,-5.431309904153354406e-02,1.874334398296059745e-01,8.757793764988010210e+00,1.117505995203836866e+00,5.002398081534772167e+00
2.943312552052503861e+00,-3.301384451544196047e-02,-7.561235356762513460e-02,2.140575079872204523e-01,8.848920863309352569e+00,1.059952038369304628e+00,4.875299760191846410e+00
2.948269291348138310e+00,-2.662406815761448470e-02,-9.371671991480298725e-02,2.300319488817891278e-01,8.920863309352517589e+00,1.016786570743405171e+00,4.700239808153477306e+00
2.953226030643772759e+00,-2.768903088391906284e-02,-9.904153354632587447e-02,2.374866879659212060e-01,9.007194244604317390e+00,1.021582733812949728e+00,4.577937649880095883e+00
2.958182769939407208e+00,-3.194888178913737886e-02,-1.001064962726304630e-01,2.481363152289669805e-01,8.990407673860911331e+00,1.062350119904076795e+00,4.529976019184652536e+00
2.963139509235041658e+00,-3.407880724174654208e-02,-1.022364217252396124e-01,2.651757188498402584e-01,8.973621103117505271e+00,1.016786570743405171e+00,4.505995203836930862e+00
2.968096248530676107e+00,-3.727369542066027996e-02,-1.022364217252396124e-01,2.843450479233226580e-01,9.007194244604317390e+00,8.681055155875300189e-01,4.491606714628296970e+00
2.973052987826310556e+00,-3.620873269435569836e-02,-1.033013844515442009e-01,2.939297124600638855e-01,8.983213429256593940e+00,7.505995203836930418e-01,4.491606714628296970e+00
2.978009727121945005e+00,-3.301384451544196047e-02,-1.054313099041533502e-01,2.960596379126730349e-01,8.978417266187049606e+00,6.906474820143885252e-01,4.486810551558752636e+00
2.982966466417579454e+00,-2.662406815761448470e-02,-1.086261980830670881e-01,2.981895633652822397e-01,8.980815347721822661e+00,6.378896882494005105e-01,4.470023980815347464e+00
2.987923205713213903e+00,-1.703940362087327104e-02,-1.118210862619808260e-01,3.099041533546325611e-01,8.976019184652278327e+00,5.443645083932853179e-01,4.422062350119904117e+00
2.992879945008848352e+00,-5.324813631522896766e-03,-1.118210862619808260e-01,3.184238551650692139e-01,8.959232613908872267e+00,3.836930455635491621e-01,4.335731414868105205e+00
2.997836684304482802e+00,1.064962726304579353e-02,-1.064962726304579388e-01,3.162939297124600646e-01,8.973621103117505271e+00,1.726618705035971313e-01,4.369304556354916436e+00
3.002793423600117251e+00,2.449414270500532495e-02,-1.054313099041533502e-01,3.077742279020234117e-01,9.047961630695443347e+00,-3.357314148681055099e-02,4.376498800959232938e+00
3.007750162895751700e+00,3.514376996805111675e-02,-1.107561235356762513e-01,2.896698615548455868e-01,9.103117505995204084e+00,-1.342925659472422040e-01,4.318944844124700033e+00
3.012706902191386149e+00,4.579339723109691201e-02,-1.086261980830670881e-01,2.630457933972311091e-01,9.146282973621103096e+00,-2.230215827338129508e-01,4.218225419664269005e+00
3.017663641487020598e+00,5.750798722044728195e-02,-1.011714589989350377e-01,2.385516506922257807e-01,9.112709832134292753e+00,-3.021582733812949728e-01,4.146282973621103096e+00
3.022620380782655047e+00,6.709265175718849561e-02,-8.732694355697551147e-02,2.129925452609158776e-01,9.124700239808152702e+00,-3.980815347721822772e-01,4.172661870503596937e+00
3.027577120078289052e+00,7.561235356762513460e-02,-7.667731629392970927e-02,1.821086261980830734e-01,9.187050359712230829e+00,-4.580335731414867939e-01,4.211031175059951615e+00
3.032533859373923502e+00,8.626198083067092293e-02,-6.922257720979765883e-02,1.480298189563365174e-01,9.232613908872901121e+00,-4.964028776978417490e-01,4.201438848920862945e+00
3.037490598669557951e+00,9.265175718849839870e-02,-6.070287539936101984e-02,1.107561235356762513e-01,9.201438848920863833e+00,-4.604316546762590168e-01,4.110311750599520586e+00
3.042447337965192400e+00,1.011714589989350377e-01,-4.792332268370606829e-02,7.454739084132055993e-02,9.146282973621103096e+00,-3.597122302158273222e-01,4.095923261390887582e+00
3.047404077260826849e+00,1.064962726304579388e-01,-3.088391906283280072e-02,5.005324813631523151e-02,9.112709832134292753e+00,-2.709832134292565753e-01,4.055155875299759849e+00
3.052360816556461298e+00,1.107561235356762513e-01,-9.584664536741213658e-03,2.981895633652822258e-02,9.115107913669064033e+00,-2.302158273381295084e-01,4.062350119904076351e+00
3.057317555852095747e+00,1.139510117145899892e-01,5.324813631522896766e-03,1.064962726304579353e-02,9.115107913669064033e+00,-2.374100719424460382e-01,4.143884892086330929e+00
3.062274295147730196e+00,1.150159744408945639e-01,1.810436634717784918e-02,-6.389776357827475772e-03,9.076738609112709355e+00,-2.038369304556355011e-01,4.175059952038369104e+00
3.067231034443364646e+00,1.214057507987220397e-01,2.981895633652822258e-02,-2.342917997870074681e-02,9.019184652278177339e+00,-1.486810551558752913e-01,4.203836930455635112e+00
3.072187773738999095e+00,1.267305644302449408e-01,4.153354632587859252e-02,-3.301384451544196047e-02,8.966426858513189657e+00,-7.913669064748200810e-02,4.263788968824940184e+00
3.077144513034633544e+00,1.352502662406815659e-01,5.537806176783812567e-02,-2.981895633652822258e-02,8.966426858513189657e+00,-4.316546762589928282e-02,4.330935251798560870e+00
3.082101252330267993e+00,1.448349307774227934e-01,6.283280085197018305e-02,-2.555910543130990309e-02,8.940047961630694928e+00,-2.398081534772182263e-02,4.465227817745803129e+00
3.087057991625902442e+00,1.490947816826411199e-01,6.283280085197018305e-02,-2.342917997870074681e-02,8.901678657074340251e+00,-4.076738609112710160e-02,4.637889688249400066e+00
3.092014730921536891e+00,1.533546325878594185e-01,5.431309904153354406e-02,-2.449414270500532495e-02,8.846522781774579514e+00,-8.393285371702638442e-02,4.805755395683453557e+00
3.096971470217171341e+00,1.565495207667731703e-01,3.514376996805111675e-02,-2.768903088391906284e-02,8.733812949640288537e+00,-5.275779376498800771e-02,4.896882494004795916e+00
3.101928209512805790e+00,1.565495207667731703e-01,9.584664536741213658e-03,-3.301384451544196047e-02,8.633093525179855732e+00,1.678657074340527550e-02,4.947242206235012318e+00
3.106884948808440239e+00,1.501597444089456945e-01,-1.810436634717784918e-02,-2.875399361022364098e-02,8.621103117505995783e+00,7.673860911270982688e-02,4.930455635491607147e+00
3.111841688104074688e+00,1.427050053248136441e-01,-4.153354632587859252e-02,-2.342917997870074681e-02,8.671462829736210409e+00,1.366906474820143991e-01,4.868105515587529908e+00
3.116798427399709137e+00,1.288604898828540901e-01,-5.963791267305644517e-02,-1.703940362087327104e-02,8.719424460431655532e+00,1.750599520383692986e-01,4.767386091127097991e+00
3.121755166695343586e+00,1.075612353567625135e-01,-7.241746538871139671e-02,-1.916932907348242732e-02,8.736211031175059816e+00,2.446043165467625957e-01,4.717026378896882477e+00
3.126711905990978035e+00,8.519701810436634826e-02,-8.732694355697551147e-02,-2.129925452609158706e-02,8.726618705035971146e+00,2.757793764988009655e-01,4.690647482014388636e+00
3.131668645286612485e+00,6.389776357827475772e-02,-1.033013844515442009e-01,-2.023429179978700893e-02,8.743405275779377206e+00,3.117505995203836977e-01,4.621103117505994895e+00
3.136625384582246934e+00,4.259850905218317413e-02,-1.107561235356762513e-01,-1.916932907348242732e-02,8.772182254196643214e+00,3.645083932853717124e-01,4.467625899280575297e+00
3.141582123877881383e+00,2.768903088391906284e-02,-1.118210862619808260e-01,-1.597444089456868943e-02,8.781774580335731883e+00,3.741007194244604372e-01,4.369304556354916436e+00
3.146538863173515832e+00,1.703940362087327104e-02,-1.054313099041533502e-01,-8.519701810436635520e-03,8.851318944844123848e+00,3.573141486810551548e-01,4.299760191846522694e+00
3.151495602469150281e+00,8.519701810436635520e-03,-9.904153354632587447e-02,0.000000000000000000e+00,8.868105515587529908e+00,3.021582733812949728e-01,4.278177458033573188e+00
3.156452341764784730e+00,4.259850905218317760e-03,-9.584664536741213658e-02,3.194888178913737886e-03,8.832134292565946510e+00,2.589928057553956831e-01,4.230215827338129841e+00
3.161409081060419179e+00,4.259850905218317760e-03,-8.945686900958466081e-02,6.389776357827475772e-03,8.827338129496402175e+00,2.254196642685851182e-01,4.170263788968824770e+00
3.166365820356053629e+00,9.584664536741213658e-03,-8.200212992545261037e-02,9.584664536741213658e-03,8.832134292565946510e+00,2.038369304556355011e-01,4.143884892086330929e+00
3.171322559651688078e+00,1.916932907348242732e-02,-7.561235356762513460e-02,1.597444089456868943e-02,8.865707434052758629e+00,1.726618705035971313e-01,4.122302158273381423e+00
3.176279298947322527e+00,2.981895633652822258e-02,-6.709265175718849561e-02,2.023429179978700893e-02,8.875299760191847298e+00,1.366906474820143991e-01,4.038369304556354678e+00
3.181236038242956976e+00,3.620873269435569836e-02,-5.431309904153354406e-02,1.703940362087327104e-02,8.925659472422061924e+00,8.153477218225420320e-02,3.971223021582733992e+00
3.186192777538591425e+00,3.514376996805111675e-02,-3.727369542066027996e-02,8.519701810436635520e-03,8.882494004796162912e+00,1.342925659472422040e-01,3.980815347721822661e+00
3.191149516834225874e+00,3.194888178913737886e-02,-2.129925452609158706e-02,2.129925452609158880e-03,8.824940047961630896e+00,2.134292565947242259e-01,4.050359712230215514e+00
3.196106256129860324e+00,2.662406815761448470e-02,-1.384451544195953142e-02,-6.389776357827475772e-03,8.793764988009591832e+00,2.110311750599520308e-01,4.127098321342925757e+00
3.201062995425494773e+00,1.703940362087327104e-02,-6.389776357827475772e-03,-1.384451544195953142e-02,8.750599520383692820e+00,1.223021582733812979e-01,4.155875299760191766e+00
3.206019734721129222e+00,1.064962726304579353e-02,-3.194888178913737886e-03,-2.875399361022364098e-02,8.757793764988010210e+00,1.079136690647481966e-01,4.170263788968824770e+00
3.210976474016763671e+00,6.389776357827475772e-03,3.194888178913737886e-03,-4.685835995740149362e-02,8.764988009592325824e+00,1.510791366906474864e-01,4.206235011990407280e+00
3.215933213312398120e+00,8.519701810436635520e-03,1.064962726304579353e-02,-5.963791267305644517e-02,8.721822541966426812e+00,2.278177458033573133e-01,4.208633093525179447e+00
3.220889952608032125e+00,1.703940362087327104e-02,1.810436634717784918e-02,-6.389776357827475772e-02,8.695443645083932083e+00,2.254196642685851182e-01,4.230215827338129841e+00
3.225846691903666574e+00,3.301384451544196047e-02,2.236421725239616520e-02,-6.602768903088392094e-02,8.702637889688249473e+00,1.822541966426858562e-01,4.218225419664269005e+00
3.230803431199301023e+00,5.750798722044728195e-02,2.875399361022364098e-02,-6.815761448349308416e-02,8.673860911270983465e+00,1.558752997601918489e-01,4.247002398081535013e+00
3.235760170494935473e+00,8.945686900958466081e-02,3.620873269435569836e-02,-6.815761448349308416e-02,8.637889688249400066e+00,1.750599520383692986e-01,4.292565947242206192e+00
3.240716909790569922e+00,1.267305644302449408e-01,3.727369542066027996e-02,-5.963791267305644517e-02,8.599520383693045389e+00,2.302158273381295084e-01,4.347721822541966041e+00
3.245673649086204371e+00,1.650692225772097954e-01,3.620873269435569836e-02,-4.579339723109691201e-02,8.661870503597121740e+00,2.278177458033573133e-01,4.359712230215827766e+00
3.250630388381838820e+00,1.927582534611288478e-01,3.727369542066027996e-02,-3.301384451544196047e-02,8.690647482014387748e+00,2.853717026378896904e-01,4.309352517985611364e+00
3.255587127677473269e+00,2.097976570820021258e-01,3.940362087326943624e-02,-2.342917997870074681e-02,8.657074340527577405e+00,3.693045563549160470e-01,4.304556354916067029e+00
3.260543866973107718e+00,2.119275825346112752e-01,4.046858359957401785e-02,-1.703940362087327104e-02,8.570743405275779381e+00,4.340527577937650094e-01,4.395683453237410276e+00
3.265500606268742168e+00,2.108626198083067005e-01,3.514376996805111675e-02,-1.064962726304579353e-02,8.501199040767385640e+00,3.741007194244604372e-01,4.553956834532374209e+00
3.270457345564376617e+00,2.044728434504792247e-01,2.129925452609158706e-02,-5.324813631522896766e-03,8.482014388489208301e+00,3.453237410071942626e-01,4.573141486810551548e+00
3.275414084860011066e+00,1.927582534611288478e-01,4.259850905218317760e-03,-6.389776357827475772e-03,8.482014388489208301e+00,3.453237410071942626e-01,4.609112709832134058e+00
3.280370824155645515e+00,1.778487752928647470e-01,-1.490947816826411129e-02,-1.064962726304579353e-02,8.453237410071942293e+00,3.693045563549160470e-01,4.587529976019184552e+00
3.285327563451279964e+00,1.576144834930777450e-01,-2.875399361022364098e-02,-1.384451544195953142e-02,8.489208633093525691e+00,3.788968824940047719e-01,4.505995203836930862e+00
3.290284302746914413e+00,1.373801916932907430e-01,-3.620873269435569836e-02,-1.490947816826411129e-02,8.556354916067146377e+00,3.860911270983213295e-01,4.388489208633093774e+00
3.295241042042548862e+00,1.150159744408945639e-01,-4.153354632587859252e-02,-1.810436634717784918e-02,8.534772182254195982e+00,4.124700239808153368e-01,4.340527577937649539e+00
3.300197781338183312e+00,9.265175718849839870e-02,-4.366347177848775574e-02,-2.342917997870074681e-02,8.577937649880096771e+00,4.772182254196642437e-01,4.270983213429256686e+00
3.305154520633817761e+00,7.135250266240682204e-02,-4.259850905218317413e-02,-2.236421725239616520e-02,8.640287769784173122e+00,5.251798561151078681e-01,4.191846522781774276e+00
3.310111259929452210e+00,5.218317358892438779e-02,-3.833865814696485463e-02,-1.703940362087327104e-02,8.666666666666666075e+00,5.203836930455635335e-01,4.110311750599520586e+00
3.315067999225086659e+00,3.727369542066027996e-02,-2.981895633652822258e-02,-1.384451544195953142e-02,8.688249400479616469e+00,5.059952038369304184e-01,4.093525179856115415e+00
3.320024738520721108e+00,2.449414270500532495e-02,-2.129925452609158706e-02,-1.277955271565495154e-02,8.719424460431655532e+00,5.083932853717025857e-01,4.141486810551558762e+00
3.324981477816355557e+00,1.916932907348242732e-02,-1.810436634717784918e-02,-5.324813631522896766e-03,8.709832134292565087e+00,5.467625899280575963e-01,4.167865707434052602e+00
3.329938217111990006e+00,2.129925452609158706e-02,-1.064962726304579353e-02,6.389776357827475772e-03,8.666666666666666075e+00,5.179856115107913661e-01,4.189448441247002108e+00
3.334894956407624456e+00,2.981895633652822258e-02,-4.259850905218317760e-03,2.236421725239616520e-02,8.652278177458033070e+00,4.604316546762590168e-01,4.203836930455635112e+00
3.339851695703258905e+00,4.046858359957401785e-02,2.129925452609158880e-03,3.088391906283280072e-02,8.654676258992806126e+00,3.621103117505995450e-01,4.285371702637889690e+00
3.344808434998893354e+00,5.218317358892438779e-02,-1.064962726304579440e-03,3.194888178913737886e-02,8.664268585131894795e+00,3.621103117505995450e-01,4.347721822541966041e+00
3.349765174294527803e+00,6.283280085197018305e-02,-8.519701810436635520e-03,2.981895633652822258e-02,8.630695443645084453e+00,4.412470023980815115e-01,4.333333333333333037e+00
