t,gx,gy,gz,ax,ay,az
-1.274293964422919907e-03,-9.584664536741213658e-03,-3.407880724174654208e-02,-9.584664536741213658e-02,8.726618705035971146e+00,1.328537170263788925e+00,4.410071942446043280e+00
3.683740434548670069e-03,-2.129925452609158706e-02,-4.579339723109691201e-02,-6.389776357827475772e-02,8.760191846522781489e+00,1.366906474820143824e+00,4.117505995203837088e+00
8.641774833520261129e-03,-2.875399361022364098e-02,-4.259850905218317413e-02,-2.981895633652822258e-02,8.952038369304556653e+00,1.227817745803357230e+00,4.000000000000000000e+00
1.359980923249185132e-02,-2.555910543130990309e-02,-3.194888178913737886e-02,-5.324813631522896766e-03,9.175059952038369104e+00,1.129496402877697925e+00,3.676258992805755188e+00
1.855784363146344151e-02,-3.940362087326943624e-02,-8.519701810436635520e-03,3.194888178913737886e-03,9.067146282973620686e+00,1.254196642685851293e+00,3.709832134292565975e+00
2.351587803043503344e-02,-5.537806176783812567e-02,3.194888178913737886e-03,2.342917997870074681e-02,9.014388489208633004e+00,1.314148681055155921e+00,3.834532374100719565e+00
2.847391242940662190e-02,-6.283280085197018305e-02,5.324813631522896766e-03,6.283280085197018305e-02,9.158273381294964821e+00,1.170263788968824992e+00,3.642685851318944845e+00
3.343194682837821036e-02,-6.709265175718849561e-02,2.555910543130990309e-02,9.265175718849839870e-02,9.196642685851319499e+00,9.496402877697841527e-01,3.729016786570743314e+00
3.838998122734980228e-02,-6.070287539936101984e-02,4.366347177848775574e-02,1.096911608093716767e-01,9.045563549160672068e+00,9.064748201438849184e-01,3.832134292565947398e+00
4.334801562632139421e-02,-5.537806176783812567e-02,5.111821086261980618e-02,1.277955271565495154e-01,8.781774580335731883e+00,1.000000000000000000e+00,3.829736211031175230e+00
4.830605002529298614e-02,-5.537806176783812567e-02,6.815761448349308416e-02,1.533546325878594185e-01,8.577937649880096771e+00,9.568345323741007658e-01,4.028776978417266008e+00
5.326408442426457113e-02,-5.644302449414270728e-02,7.561235356762513460e-02,1.853035143769967974e-01,8.705035971223020752e+00,6.738609112709832427e-01,4.407673860911271113e+00
5.822211882323616305e-02,-5.111821086261980618e-02,6.496272630457934627e-02,1.948881789137380249e-01,8.872901678657074243e+00,3.645083932853717124e-01,4.532374100719424703e+00
6.318015322220774110e-02,-5.644302449414270728e-02,4.898828541001064990e-02,1.831735889243876481e-01,8.836930455635490844e+00,2.110311750599520308e-01,4.779376498800958828e+00
6.813818762117933303e-02,-5.005324813631523151e-02,2.662406815761448470e-02,1.640042598509052207e-01,8.685851318944843413e+00,3.069544364508393075e-01,4.683453237410072134e+00
7.309622202015092496e-02,-5.644302449414270728e-02,3.194888178913737886e-03,1.671991480298189447e-01,8.462829736211030962e+00,2.709832134292565753e-01,4.750599520383692820e+00
7.805425641912251689e-02,-4.366347177848775574e-02,-1.810436634717784918e-02,1.831735889243876481e-01,8.693045563549160804e+00,2.398081534772182090e-03,4.354916067146282543e+00
8.301229081809410881e-02,-5.111821086261980618e-02,-1.384451544195953142e-02,1.757188498402555976e-01,8.901678657074340251e+00,-2.589928057553956831e-01,4.235011990407674176e+00
8.797032521706570074e-02,-4.898828541001064990e-02,7.454739084132055646e-03,1.458998935037273681e-01,8.901678657074340251e+00,-2.997601918465228055e-01,4.374100719424460770e+00
9.292835961603729267e-02,-6.389776357827475772e-02,-9.584664536741213658e-03,1.150159744408945639e-01,9.146282973621103096e+00,-3.717026378896882699e-01,4.529976019184652536e+00
9.788639401500888459e-02,-8.519701810436634826e-02,-4.472843450479233041e-02,7.135250266240682204e-02,9.175059952038369104e+00,-3.261390887290168128e-01,4.083932853717026745e+00
1.028444284139804626e-01,-1.288604898828540901e-01,-4.579339723109691201e-02,2.981895633652822258e-02,8.870503597122302963e+00,-5.035971223021582649e-02,3.812949640287769615e+00
1.078024628129520546e-01,-1.608093716719914690e-01,-2.236421725239616520e-02,2.342917997870074681e-02,8.755395683453237154e+00,5.755395683453237710e-02,4.239808153477218511e+00
1.127604972119236465e-01,-1.448349307774227934e-01,-1.064962726304579353e-02,3.833865814696485463e-02,8.949640287769783598e+00,-1.079136690647481966e-01,3.954436450839328376e+00
1.177185316108952384e-01,-1.640042598509052207e-01,-1.171458998935037341e-02,3.088391906283280072e-02,8.997601918465226944e+00,-2.517985611510791255e-01,4.206235011990407280e+00
1.226765660098668304e-01,-1.576144834930777450e-01,-1.384451544195953142e-02,6.389776357827475772e-03,8.808153477218224836e+00,-5.035971223021582649e-02,3.851318944844124736e+00
1.276346004088384223e-01,-1.714589989350372712e-01,6.389776357827475772e-03,7.454739084132055646e-03,8.776978417266187549e+00,-2.398081534772182090e-03,4.294964028776978360e+00
1.325926348078100281e-01,-1.373801916932907430e-01,2.129925452609158706e-02,2.555910543130990309e-02,9.004796163069544335e+00,-1.318944844124700366e-01,4.486810551558752636e+00
1.375506692067816061e-01,-1.246006389776357776e-01,8.519701810436635520e-03,1.916932907348242732e-02,9.258992805755395850e+00,-2.901678657074340251e-01,4.613908872901678393e+00
1.425087036057532119e-01,-1.075612353567625135e-01,3.194888178913737886e-03,-9.584664536741213658e-03,8.764988009592325824e+00,-8.393285371702638442e-02,4.544364508393285540e+00
1.474667380047247900e-01,-7.987220447284344715e-02,1.384451544195953142e-02,-2.023429179978700893e-02,8.357314148681055599e+00,2.446043165467625957e-01,4.131894484412470092e+00
1.524247724036963958e-01,-9.265175718849839870e-02,2.875399361022364098e-02,-1.810436634717784918e-02,8.474820143884892687e+00,3.021582733812949728e-01,3.856115107913669071e+00
1.573828068026679738e-01,-1.299254526091586925e-01,5.537806176783812567e-02,-2.768903088391906284e-02,8.719424460431655532e+00,1.318944844124700366e-01,4.402877697841726778e+00
1.623408412016395519e-01,-1.267305644302449408e-01,6.815761448349308416e-02,-3.727369542066027996e-02,8.767386091127098879e+00,-1.175059952038369354e-01,4.980815347721822661e+00
1.672988756006111577e-01,-1.118210862619808260e-01,5.324813631522896940e-02,-5.644302449414270728e-02,8.637889688249400066e+00,-1.966426858513189435e-01,5.141486810551558762e+00
1.722569099995827357e-01,-1.341853035143769912e-01,-8.519701810436635520e-03,-9.052183173588924936e-02,8.424460431654676285e+00,-1.079136690647481966e-01,5.261390887290168017e+00
1.772149443985543416e-01,-1.363152289669861683e-01,-7.028753993610223350e-02,-1.150159744408945639e-01,8.400479616306954611e+00,7.673860911270982688e-02,4.834532374100719565e+00
1.821729787975259196e-01,-1.416400425985090417e-01,-9.691160809371672513e-02,-1.107561235356762513e-01,8.618705035971222728e+00,1.678657074340527688e-01,4.628297362110311397e+00
1.871310131964975254e-01,-1.437699680511182188e-01,-1.075612353567625135e-01,-9.797657082002129980e-02,9.011990407673861725e+00,2.158273381294963933e-01,4.436450839328537121e+00
1.920890475954691035e-01,-1.554845580404685956e-01,-1.192758253461128903e-01,-8.306709265175718504e-02,8.928057553956834980e+00,2.925659472422062479e-01,4.177458033573141272e+00
1.970470819944407093e-01,-1.533546325878594185e-01,-1.235356762513312029e-01,-6.709265175718849561e-02,9.021582733812950394e+00,2.589928057553956831e-01,3.884892086330935079e+00
2.020051163934122873e-01,-1.395101171458998923e-01,-1.011714589989350377e-01,-5.218317358892438779e-02,8.968824940047960936e+00,3.309352517985611475e-01,3.467625899280575741e+00
2.069631507923838654e-01,-1.373801916932907430e-01,-7.028753993610223350e-02,-2.662406815761448470e-02,8.836930455635490844e+00,4.364508393285371768e-01,3.652278177458033515e+00
2.119211851913554712e-01,-1.043663471778487756e-01,-4.898828541001064990e-02,1.597444089456868943e-02,9.004796163069544335e+00,4.700239808153477417e-01,3.537170263788969038e+00
2.168792195903270492e-01,-7.774227902023429781e-02,-2.236421725239616520e-02,7.028753993610223350e-02,9.328537170263789591e+00,3.165467625899280324e-01,3.688249400479616469e+00
2.218372539892986550e-01,-3.727369542066027996e-02,1.171458998935037341e-02,1.096911608093716767e-01,9.426858513189447564e+00,2.206235011990407557e-01,3.731414868105515481e+00
2.267952883882702331e-01,-1.916932907348242732e-02,3.727369542066027996e-02,1.277955271565495154e-01,9.323741007194245256e+00,1.798561151079136611e-01,3.978417266187050494e+00
2.317533227872418389e-01,2.129925452609158880e-03,5.218317358892438779e-02,1.480298189563365174e-01,9.052757793764987682e+00,2.158273381294963933e-01,4.278177458033573188e+00
2.367113571862134169e-01,2.129925452609158706e-02,3.407880724174654208e-02,1.629392971246006461e-01,8.880095923261391633e+00,1.726618705035971313e-01,3.964028776978417046e+00
2.416693915851849950e-01,2.129925452609158706e-02,4.685835995740149362e-02,1.565495207667731703e-01,9.026378896882494729e+00,9.112709832134292809e-02,3.695443645083932971e+00
2.466274259841566008e-01,2.129925452609158706e-02,1.033013844515442009e-01,1.469648562300319428e-01,9.206235011990408168e+00,1.558752997601918489e-01,4.220623501199041172e+00
2.515854603831281788e-01,2.236421725239616520e-02,1.107561235356762513e-01,1.416400425985090417e-01,9.285371702637888802e+00,9.832134292565947176e-02,4.601918465227817556e+00
2.565434947820997569e-01,-4.259850905218317760e-03,6.815761448349308416e-02,1.001064962726304630e-01,9.788968824940047497e+00,-9.592326139088728360e-03,4.465227817745803129e+00
2.615015291810713904e-01,-5.431309904153354406e-02,4.685835995740149362e-02,4.366347177848775574e-02,9.498800959232614360e+00,1.390887290167865664e-01,4.575539568345323715e+00
2.664595635800429685e-01,-5.857294994675186356e-02,5.537806176783812567e-02,2.129925452609158706e-02,9.342925659472422595e+00,3.021582733812949728e-01,4.474820143884891799e+00
2.714175979790145465e-01,-6.602768903088392094e-02,6.389776357827475772e-02,9.584664536741213658e-03,9.292565947242206192e+00,4.412470023980815115e-01,4.683453237410072134e+00
2.763756323779861246e-01,-7.667731629392970927e-02,4.366347177848775574e-02,7.454739084132055646e-03,9.052757793764987682e+00,5.659472422062350461e-01,4.776978417266186661e+00
2.813336667769577026e-01,-8.306709265175718504e-02,9.584664536741213658e-03,1.916932907348242732e-02,8.621103117505995783e+00,7.482014388489208745e-01,4.405275779376498946e+00
2.862917011759293362e-01,-8.839190628328008614e-02,-1.064962726304579440e-03,4.792332268370606829e-02,8.690647482014387748e+00,7.482014388489208745e-01,4.170263788968824770e+00
2.912497355749009142e-01,-6.602768903088392094e-02,1.810436634717784918e-02,9.371671991480298725e-02,8.719424460431655532e+00,7.026378896882493619e-01,4.098321342925659749e+00
2.962077699738724923e-01,-6.389776357827475772e-02,-3.194888178913737886e-03,1.309904153354632672e-01,8.954436450839327932e+00,5.299760191846523139e-01,3.589928057553956720e+00
3.011658043728440703e-01,-8.093716719914803570e-02,1.810436634717784918e-02,1.309904153354632672e-01,9.191846522781775164e+00,5.275779376498801465e-01,3.398081534772182444e+00
3.061238387718157039e-01,-8.413205537806177359e-02,7.241746538871139671e-02,1.490947816826411199e-01,8.834532374100719565e+00,5.611510791366906004e-01,3.515587529976019088e+00
3.110818731707872820e-01,-6.389776357827475772e-02,1.224707135250266282e-01,1.810436634717784987e-01,8.901678657074340251e+00,3.717026378896882699e-01,3.911270983213429364e+00
3.160399075697588600e-01,-5.431309904153354406e-02,1.277955271565495154e-01,1.970181043663471743e-01,8.932853717026379314e+00,2.038369304556355011e-01,4.158273381294963933e+00
3.209979419687304381e-01,-5.537806176783812567e-02,1.096911608093716767e-01,1.906283280085196985e-01,9.002398081534773056e+00,1.726618705035971313e-01,4.256594724220623682e+00
3.259559763677020161e-01,-5.111821086261980618e-02,1.011714589989350377e-01,1.821086261980830734e-01,8.918465227817746310e+00,3.621103117505995450e-01,4.172661870503596937e+00
3.309140107666736497e-01,-6.070287539936101984e-02,1.022364217252396124e-01,1.863684771033013721e-01,9.038369304556354678e+00,4.148681055155875042e-01,4.522781774580336034e+00
3.358720451656452277e-01,-6.176783812566560145e-02,8.945686900958466081e-02,1.927582534611288478e-01,9.167865707434053490e+00,3.453237410071942626e-01,4.544364508393285540e+00
3.408300795646168058e-01,-7.987220447284344715e-02,6.496272630457934627e-02,1.842385516506922227e-01,9.064748201438849406e+00,2.901678657074340251e-01,4.484412470023980468e+00
3.457881139635883838e-01,-9.158679446219382403e-02,4.685835995740149362e-02,1.682641107561235472e-01,8.791366906474820553e+00,3.884892086330935523e-01,4.354916067146282543e+00
3.507461483625600174e-01,-9.691160809371672513e-02,2.981895633652822258e-02,1.693290734824281218e-01,8.750599520383692820e+00,5.059952038369304184e-01,4.302158273381294862e+00
3.557041827615315954e-01,-9.584664536741213658e-02,9.584664536741213658e-03,1.863684771033013721e-01,8.688249400479616469e+00,4.964028776978417490e-01,4.218225419664269005e+00
3.606622171605031735e-01,-8.413205537806177359e-02,-4.259850905218317760e-03,2.097976570820021258e-01,8.736211031175059816e+00,3.812949640287769948e-01,3.880095923261390745e+00
3.656202515594747515e-01,-6.815761448349308416e-02,3.194888178913737886e-03,2.257720979765708291e-01,8.848920863309352569e+00,2.470023980815347631e-01,3.702637889688249473e+00
3.705782859584463296e-01,-3.940362087326943624e-02,2.555910543130990309e-02,2.417465388711395047e-01,8.760191846522781489e+00,2.110311750599520308e-01,3.649880095923261347e+00
3.755363203574179631e-01,-1.064962726304579353e-02,4.259850905218317413e-02,2.651757188498402584e-01,8.755395683453237154e+00,1.175059952038369354e-01,3.774580335731414937e+00
3.804943547563895412e-01,2.768903088391906284e-02,5.644302449414270728e-02,2.960596379126730349e-01,8.798561151079136167e+00,-1.079136690647481966e-01,3.781774580335731439e+00
3.854523891553611192e-01,5.857294994675186356e-02,6.496272630457934627e-02,3.184238551650692139e-01,8.884892086330935967e+00,-4.580335731414867939e-01,3.776978417266187105e+00
3.904104235543326973e-01,8.626198083067092293e-02,7.348242811501597138e-02,3.056443024494142624e-01,8.968824940047960936e+00,-6.163069544364508934e-01,3.884892086330935079e+00
3.953684579533043308e-01,1.107561235356762513e-01,6.922257720979765883e-02,2.886048988285410122e-01,8.791366906474820553e+00,-5.539568345323740983e-01,4.019184652278177339e+00
4.003264923522759089e-01,1.437699680511182188e-01,6.176783812566560145e-02,2.822151224707135087e-01,8.666666666666666075e+00,-4.820143884892086339e-01,4.167865707434052602e+00
4.052845267512474869e-01,1.799787007454738963e-01,4.579339723109691201e-02,2.896698615548455868e-01,8.762589928057554545e+00,-6.187050359712230607e-01,4.086330935251798913e+00
4.102425611502190650e-01,2.066027689030884018e-01,2.768903088391906284e-02,2.811501597444089340e-01,8.980815347721822661e+00,-8.153477218225420042e-01,4.093525179856115415e+00
4.152005955491906430e-01,2.310969116080937302e-01,1.384451544195953142e-02,2.460063897763578311e-01,8.980815347721822661e+00,-7.482014388489208745e-01,3.853717026378896904e+00
4.201586299481622766e-01,2.428115015974440793e-01,9.584664536741213658e-03,2.140575079872204523e-01,8.928057553956834980e+00,-5.707434052757793808e-01,3.805755395683453113e+00
4.251166643471338547e-01,2.609158679446219598e-01,1.597444089456868943e-02,1.991480298189563236e-01,8.901678657074340251e+00,-4.340527577937650094e-01,3.613908872901678837e+00
4.300746987461054327e-01,2.715654952076677064e-01,3.301384451544196047e-02,2.023429179978700754e-01,9.079136690647482411e+00,-5.587529976019184330e-01,3.625899280575539674e+00
4.350327331450770108e-01,2.822151224707135087e-01,5.431309904153354406e-02,1.874334398296059745e-01,9.235011990407674176e+00,-5.827338129496403285e-01,3.601918465227817556e+00
4.399907675440485888e-01,2.726304579339723366e-01,6.815761448349308416e-02,1.565495207667731703e-01,9.107913669064748419e+00,-3.788968824940047719e-01,3.707434052757793808e+00
4.449488019430202224e-01,2.630457933972311091e-01,7.880724174653887248e-02,1.448349307774227934e-01,8.930455635491606259e+00,-1.630695443645084064e-01,3.829736211031175230e+00
4.499068363419918004e-01,2.513312034078807322e-01,8.413205537806177359e-02,1.544195953141639932e-01,8.983213429256593940e+00,-1.318944844124700366e-01,4.009592326139088669e+00
4.548648707409633785e-01,2.374866879659212060e-01,8.519701810436634826e-02,1.608093716719914690e-01,9.213429256594723782e+00,-2.541966426858512929e-01,4.136690647482014427e+00
4.598229051399349565e-01,2.215122470713525027e-01,8.093716719914803570e-02,1.490947816826411199e-01,9.287769784172661858e+00,-2.494004796163069582e-01,4.115107913669064921e+00
4.647809395389065901e-01,1.874334398296059745e-01,7.880724174653887248e-02,1.352502662406815659e-01,9.158273381294964821e+00,-1.414868105515587615e-01,4.347721822541966041e+00
4.697389739378781681e-01,1.725239616613418459e-01,8.093716719914803570e-02,1.331203407880724165e-01,9.071942446043165020e+00,-4.556354916067146404e-02,4.297362110311750527e+00
4.746970083368497462e-01,1.469648562300319428e-01,7.987220447284344715e-02,1.331203407880724165e-01,9.211031175059952503e+00,-2.733812949640287981e-01,4.505995203836930862e+00
4.796550427358213242e-01,1.331203407880724165e-01,6.389776357827475772e-02,1.150159744408945639e-01,9.285371702637888802e+00,-4.004796163069544446e-01,4.388489208633093774e+00
4.846130771347929023e-01,1.139510117145899892e-01,4.259850905218317413e-02,8.519701810436634826e-02,9.182254196642686495e+00,-3.621103117505995450e-01,4.103117505995204084e+00
4.895711115337645358e-01,1.054313099041533502e-01,4.792332268370606829e-02,6.922257720979765883e-02,9.131894484412470092e+00,-4.052757793764987793e-01,3.839328537170263900e+00
4.945291459327361139e-01,1.214057507987220397e-01,8.839190628328008614e-02,6.283280085197018305e-02,9.247002398081534125e+00,-5.587529976019184330e-01,3.534772182254196426e+00
4.994871803317076919e-01,1.331203407880724165e-01,1.480298189563365174e-01,4.579339723109691201e-02,9.426858513189447564e+00,-7.577937649880095439e-01,3.836930455635491732e+00
5.044452147306792700e-01,1.522896698615548439e-01,1.874334398296059745e-01,4.259850905218317760e-03,9.323741007194245256e+00,-8.009592326139088891e-01,4.323741007194244368e+00
5.094032491296508480e-01,1.650692225772097954e-01,1.831735889243876481e-01,-3.727369542066027996e-02,9.079136690647482411e+00,-6.426858513189448452e-01,4.858513189448441238e+00
5.143612835286224261e-01,1.831735889243876481e-01,1.384451544195953177e-01,-5.857294994675186356e-02,8.669064748201439130e+00,-4.436450839328537343e-01,4.856115107913669071e+00
5.193193179275940041e-01,1.991480298189563236e-01,1.033013844515442009e-01,-5.963791267305644517e-02,8.582733812949641106e+00,-3.956834532374100544e-01,4.669064748201439130e+00
5.242773523265656932e-01,2.161874334398296016e-01,9.371671991480298725e-02,-5.963791267305644517e-02,8.805755395683453557e+00,-4.220623501199040617e-01,4.661870503597122628e+00
5.292353867255372712e-01,2.236421725239616520e-01,7.880724174653887248e-02,-6.283280085197018305e-02,9.002398081534773056e+00,-3.549160671462829875e-01,4.817745803357314394e+00
5.341934211245088493e-01,2.204472843450479280e-01,3.833865814696485463e-02,-7.135250266240682204e-02,8.772182254196643214e+00,-1.966426858513189435e-01,4.815347721822542226e+00
5.391514555234804273e-01,2.108626198083067005e-01,1.064962726304579440e-03,-7.454739084132055993e-02,8.700239808153476417e+00,1.678657074340527550e-02,4.666666666666666963e+00
5.441094899224520054e-01,1.927582534611288478e-01,-2.023429179978700893e-02,-6.283280085197018305e-02,8.935251798561150594e+00,1.678657074340527550e-02,4.453237410071942293e+00
5.490675243214235834e-01,1.746538871139510229e-01,-2.555910543130990309e-02,-5.005324813631523151e-02,9.258992805755395850e+00,-1.750599520383692986e-01,4.107913669064748419e+00
5.540255587203951615e-01,1.448349307774227934e-01,-1.064962726304579353e-02,-6.176783812566560145e-02,9.338129496402878260e+00,-2.374100719424460382e-01,3.966426858513189657e+00
5.589835931193667395e-01,1.118210862619808260e-01,1.171458998935037341e-02,-7.667731629392970927e-02,9.256594724220622794e+00,-5.515587529976018893e-02,3.968824940047961825e+00
5.639416275183383176e-01,7.880724174653887248e-02,2.449414270500532495e-02,-7.348242811501597138e-02,9.237410071942445455e+00,6.714628297362110199e-02,3.930455635491606703e+00
5.688996619173100067e-01,4.792332268370606829e-02,4.153354632587859252e-02,-5.750798722044728195e-02,9.381294964028777272e+00,-8.872901678657074687e-02,3.810551558752997447e+00
5.738576963162815847e-01,1.490947816826411129e-02,7.241746538871139671e-02,-5.963791267305644517e-02,9.558752997601917656e+00,-2.949640287769784153e-01,3.745803357314148485e+00
5.788157307152531628e-01,-2.236421725239616520e-02,1.064962726304579388e-01,-8.839190628328008614e-02,9.633093525179855732e+00,-3.261390887290168128e-01,3.899280575539568527e+00
5.837737651142247408e-01,-5.537806176783812567e-02,1.352502662406815659e-01,-1.182108626198083018e-01,9.505995203836929974e+00,-1.702637889688249362e-01,4.211031175059951615e+00
5.887317995131963189e-01,-7.561235356762513460e-02,1.480298189563365174e-01,-1.267305644302449408e-01,9.247002398081534125e+00,-2.158273381294964141e-02,4.541966426858513373e+00
5.936898339121678969e-01,-8.413205537806177359e-02,1.448349307774227934e-01,-1.160809371671991524e-01,9.122302158273381423e+00,-5.995203836930455832e-02,4.719424460431654644e+00
5.986478683111394750e-01,-8.945686900958466081e-02,1.341853035143769912e-01,-1.107561235356762513e-01,9.177458033573142160e+00,-2.637889688249400733e-01,4.904076738609112418e+00
6.036059027101110530e-01,-9.158679446219382403e-02,1.192758253461128903e-01,-1.192758253461128903e-01,9.100719424460431028e+00,-3.717026378896882699e-01,5.076738609112710243e+00
6.085639371090826311e-01,-9.158679446219382403e-02,8.839190628328008614e-02,-1.277955271565495154e-01,8.949640287769783598e+00,-3.717026378896882699e-01,5.374100719424460770e+00
6.135219715080543201e-01,-9.158679446219382403e-02,2.981895633652822258e-02,-1.416400425985090417e-01,8.848920863309352569e+00,-3.453237410071942626e-01,5.563549160671462879e+00
6.184800059070258982e-01,-8.945686900958466081e-02,-3.620873269435569836e-02,-1.554845580404685956e-01,8.577937649880096771e+00,-4.052757793764987793e-01,5.196642685851318610e+00
6.234380403059974762e-01,-9.797657082002129980e-02,-7.028753993610223350e-02,-1.703940362087326965e-01,8.700239808153476417e+00,-5.659472422062350461e-01,5.187050359712229941e+00
6.283960747049690543e-01,-1.096911608093716767e-01,-1.107561235356762513e-01,-2.002129925452609260e-01,8.947242206235012318e+00,-6.714628297362110754e-01,5.304556354916067029e+00
6.333541091039406323e-01,-1.160809371671991524e-01,-1.671991480298189447e-01,-2.428115015974440793e-01,9.091127098321342359e+00,-6.546762589928057929e-01,5.100719424460431917e+00
6.383121435029122104e-01,-1.341853035143769912e-01,-2.236421725239616520e-01,-2.832800851970180833e-01,8.983213429256593940e+00,-5.707434052757793808e-01,4.657074340527578293e+00
6.432701779018837884e-01,-1.448349307774227934e-01,-2.385516506922257807e-01,-3.173588924387646393e-01,9.088729016786571080e+00,-5.155875299760191988e-01,4.268585131894484519e+00
6.482282123008553665e-01,-1.544195953141639932e-01,-2.268370607028754038e-01,-3.397231096911608184e-01,9.426858513189447564e+00,-5.347721822541966485e-01,4.076738609112710243e+00
6.531862466998269445e-01,-1.586794462193823196e-01,-2.044728434504792247e-01,-3.663471778487752961e-01,9.731414868105515481e+00,-6.450839328537170125e-01,4.115107913669064921e+00
6.581442810987986336e-01,-1.608093716719914690e-01,-1.821086261980830734e-01,-4.089456869009584494e-01,9.625899280575540118e+00,-5.563549160671462657e-01,4.187050359712229941e+00
6.631023154977702116e-01,-1.629392971246006461e-01,-1.629392971246006461e-01,-4.408945686900958560e-01,9.270983213429255798e+00,-2.733812949640287981e-01,4.525179856115108201e+00
6.680603498967417897e-01,-1.448349307774227934e-01,-1.554845580404685956e-01,-4.376996805111821320e-01,8.976019184652278327e+00,-1.199040767386091132e-02,4.633093525179855732e+00
6.730183842957133677e-01,-1.277955271565495154e-01,-1.618743343982960714e-01,-4.110756123535675988e-01,8.880095923261391633e+00,-2.398081534772182090e-03,4.779376498800958828e+00
6.779764186946849458e-01,-1.043663471778487756e-01,-1.757188498402555976e-01,-3.908413205537806245e-01,8.899280575539568972e+00,-4.556354916067146404e-02,4.810551558752997892e+00
6.829344530936565238e-01,-9.265175718849839870e-02,-1.970181043663471743e-01,-3.801916932907348223e-01,8.856115107913668183e+00,1.750599520383692986e-01,4.980815347721822661e+00
6.878924874926281019e-01,-8.093716719914803570e-02,-2.321618743343983049e-01,-3.599574014909477926e-01,8.697841726618705138e+00,4.916067146282973588e-01,4.918465227817745422e+00
6.928505218915996799e-01,-7.348242811501597138e-02,-2.630457933972311091e-01,-3.130990415335463406e-01,8.676258992805754744e+00,5.971223021582733326e-01,4.609112709832134058e+00
6.978085562905712580e-01,-7.454739084132055993e-02,-2.736954206602769113e-01,-2.630457933972311091e-01,8.846522781774579514e+00,4.292565947242206192e-01,4.366906474820144268e+00
7.027665906895429471e-01,-8.413205537806177359e-02,-2.736954206602769113e-01,-2.385516506922257807e-01,9.076738609112709355e+00,2.685851318944844079e-01,4.201438848920862945e+00
7.077246250885145251e-01,-1.139510117145899892e-01,-2.758253461128860606e-01,-2.364217252396166036e-01,9.117505995203837088e+00,2.086330935251798635e-01,4.230215827338129841e+00
7.126826594874861032e-01,-1.384451544195953177e-01,-2.896698615548455868e-01,-2.396166134185303553e-01,9.043165467625899012e+00,2.446043165467625957e-01,3.997601918465227833e+00
7.176406938864576812e-01,-1.661341853035143701e-01,-2.960596379126730349e-01,-2.374866879659212060e-01,9.000000000000000000e+00,1.774580335731414937e-01,3.695443645083932971e+00
7.225987282854292593e-01,-1.895633652822151238e-01,-2.800851970181043593e-01,-2.406815761448349300e-01,9.153477218225420486e+00,2.398081534772182263e-02,3.479616306954436578e+00
7.275567626844008373e-01,-2.119275825346112752e-01,-2.534611288604898816e-01,-2.523961661341853069e-01,9.383693045563548552e+00,-4.076738609112710160e-02,3.501199040767386084e+00
7.325147970833724154e-01,-2.300319488817891278e-01,-2.289669861554845531e-01,-2.705005324813631318e-01,9.431654676258993675e+00,9.592326139088728360e-03,3.628297362110311841e+00
7.374728314823439934e-01,-2.449414270500532564e-01,-2.097976570820021258e-01,-2.811501597444089340e-01,9.333333333333333925e+00,1.918465227817745811e-01,3.623501199040767506e+00
7.424308658813155715e-01,-2.555910543130990309e-01,-1.853035143769967974e-01,-2.811501597444089340e-01,9.282973621103117523e+00,2.350119904076738708e-01,3.673860911270983021e+00
7.473889002802872605e-01,-2.630457933972311091e-01,-1.565495207667731703e-01,-2.843450479233226580e-01,9.244604316546762846e+00,3.069544364508393075e-01,3.762589928057554101e+00
7.523469346792588386e-01,-2.715654952076677064e-01,-1.363152289669861683e-01,-2.864749733759318628e-01,9.167865707434053490e+00,3.573141486810551548e-01,4.203836930455635112e+00
7.573049690782304166e-01,-2.694355697550585571e-01,-1.427050053248136441e-01,-2.822151224707135087e-01,9.076738609112709355e+00,4.292565947242206192e-01,4.453237410071942293e+00
7.622630034772019947e-01,-2.587859424920127549e-01,-1.618743343982960714e-01,-2.715654952076677064e-01,9.011990407673861725e+00,5.035971223021582510e-01,4.453237410071942293e+00
7.672210378761735727e-01,-2.428115015974440793e-01,-1.778487752928647470e-01,-2.587859424920127549e-01,8.971223021582733992e+00,5.611510791366906004e-01,4.441247002398081456e+00
7.721790722751451508e-01,-2.215122470713525027e-01,-1.895633652822151238e-01,-2.364217252396166036e-01,8.952038369304556653e+00,6.091127098321342803e-01,4.436450839328537121e+00
7.771371066741167288e-01,-2.066027689030884018e-01,-2.108626198083067005e-01,-2.140575079872204523e-01,9.016786570743406060e+00,6.115107913669064477e-01,4.103117505995204084e+00
7.820951410730883069e-01,-2.097976570820021258e-01,-2.204472843450479280e-01,-2.055378061767837994e-01,9.127098321342925757e+00,5.371702637889688159e-01,3.700239808153477306e+00
7.870531754720598849e-01,-2.204472843450479280e-01,-1.948881789137380249e-01,-2.066027689030884018e-01,9.431654676258993675e+00,4.388489208633093441e-01,3.580335731414868050e+00
7.920112098710315740e-01,-2.129925452609158776e-01,-1.490947816826411199e-01,-2.066027689030884018e-01,9.707434052757793808e+00,2.661870503597122406e-01,3.827338129496403063e+00
7.969692442700031521e-01,-1.948881789137380249e-01,-1.288604898828540901e-01,-2.023429179978700754e-01,9.136690647482014427e+00,1.966426858513189435e-01,3.942446043165467540e+00
8.019272786689747301e-01,-1.640042598509052207e-01,-1.256656017039403661e-01,-2.002129925452609260e-01,8.988009592326138275e+00,1.942446043165467762e-01,3.721822541966426812e+00
8.068853130679463082e-01,-1.341853035143769912e-01,-1.011714589989350377e-01,-1.895633652822151238e-01,9.383693045563548552e+00,2.302158273381295084e-01,3.788968824940047941e+00
8.118433474669178862e-01,-1.022364217252396124e-01,-8.413205537806177359e-02,-1.746538871139510229e-01,9.517985611510791699e+00,2.541966426858512929e-01,3.997601918465227833e+00
8.168013818658894643e-01,-7.987220447284344715e-02,-8.093716719914803570e-02,-1.608093716719914690e-01,9.112709832134292753e+00,2.949640287769784153e-01,4.021582733812949506e+00
8.217594162648610423e-01,-7.028753993610223350e-02,-7.454739084132055993e-02,-1.650692225772097954e-01,9.026378896882494729e+00,3.932853717026378870e-01,4.299760191846522694e+00
8.267174506638326204e-01,-6.602768903088392094e-02,-8.413205537806177359e-02,-1.671991480298189447e-01,9.141486810551558762e+00,5.011990407673860837e-01,4.453237410071942293e+00
8.316754850628041984e-01,-5.537806176783812567e-02,-1.064962726304579388e-01,-1.533546325878594185e-01,9.074340527577938076e+00,5.155875299760191988e-01,4.486810551558752636e+00
8.366335194617757764e-01,-4.046858359957401785e-02,-1.160809371671991524e-01,-1.352502662406815659e-01,8.985611510791366996e+00,5.635491606714628787e-01,4.340527577937649539e+00
8.415915538607474655e-01,-4.366347177848775574e-02,-1.224707135250266282e-01,-1.224707135250266282e-01,8.868105515587529908e+00,7.026378896882493619e-01,4.563549160671462879e+00
8.465495882597190436e-01,-4.046858359957401785e-02,-1.458998935037273681e-01,-1.043663471778487756e-01,8.791366906474820553e+00,9.232613908872902009e-01,4.733812949640287648e+00
8.515076226586906216e-01,-4.792332268370606829e-02,-1.863684771033013721e-01,-7.028753993610223350e-02,8.824940047961630896e+00,8.968824940047961380e-01,4.729016786570743314e+00
8.564656570576621997e-01,-5.644302449414270728e-02,-2.257720979765708291e-01,-4.366347177848775574e-02,8.988009592326138275e+00,7.410071942446042614e-01,4.431654676258992787e+00
8.614236914566337777e-01,-7.348242811501597138e-02,-2.406815761448349300e-01,-3.727369542066027996e-02,9.139088729016785706e+00,7.338129496402877594e-01,4.175059952038369104e+00
8.663817258556053558e-01,-8.945686900958466081e-02,-2.438764643237486818e-01,-3.407880724174654208e-02,9.187050359712230829e+00,8.057553956834532238e-01,4.141486810551558762e+00
8.713397602545769338e-01,-9.691160809371672513e-02,-2.428115015974440793e-01,-1.277955271565495154e-02,9.165467625899280435e+00,8.201438848920863389e-01,4.091127098321343247e+00
8.762977946535485119e-01,-1.054313099041533502e-01,-2.460063897763578311e-01,1.171458998935037341e-02,9.194244604316546443e+00,6.666666666666666297e-01,4.115107913669064921e+00
8.812558290525200899e-01,-1.054313099041533502e-01,-2.523961661341853069e-01,2.023429179978700893e-02,9.328537170263789591e+00,4.772182254196642437e-01,3.973621103117506159e+00
8.862138634514917790e-01,-1.086261980830670881e-01,-2.566560170394036056e-01,1.490947816826411129e-02,9.357314148681055599e+00,4.316546762589927866e-01,3.983213429256594829e+00
8.911718978504633570e-01,-1.022364217252396124e-01,-2.577209797657081802e-01,1.171458998935037341e-02,9.270983213429255798e+00,5.155875299760191988e-01,3.944844124700239707e+00
8.961299322494349351e-01,-9.371671991480298725e-02,-2.555910543130990309e-01,2.023429179978700893e-02,9.227817745803356786e+00,5.851318944844124958e-01,3.940047961630695372e+00
9.010879666484065131e-01,-8.519701810436634826e-02,-2.555910543130990309e-01,3.620873269435569836e-02,9.251798561151078459e+00,5.491606714628297636e-01,3.884892086330935079e+00
9.060460010473780912e-01,-8.200212992545261037e-02,-2.513312034078807322e-01,3.833865814696485463e-02,9.285371702637888802e+00,4.868105515587530241e-01,3.877697841726618577e+00
9.110040354463496692e-01,-8.519701810436634826e-02,-2.470713525026624058e-01,3.620873269435569836e-02,9.223021582733812451e+00,5.011990407673860837e-01,4.007194244604316502e+00
9.159620698453212473e-01,-8.626198083067092293e-02,-2.534611288604898816e-01,3.301384451544196047e-02,9.153477218225420486e+00,5.227817745803357008e-01,3.935251798561151038e+00
9.209201042442928253e-01,-8.626198083067092293e-02,-2.587859424920127549e-01,3.088391906283280072e-02,9.129496402877697037e+00,4.652278177458033515e-01,3.894484412470024193e+00
9.258781386432644034e-01,-7.561235356762513460e-02,-2.523961661341853069e-01,3.301384451544196047e-02,9.131894484412470092e+00,4.412470023980815115e-01,3.762589928057554101e+00
9.308361730422360925e-01,-7.561235356762513460e-02,-2.470713525026624058e-01,2.981895633652822258e-02,9.055155875299760737e+00,4.916067146282973588e-01,3.779376498800959272e+00
9.357942074412076705e-01,-7.028753993610223350e-02,-2.428115015974440793e-01,3.088391906283280072e-02,9.074340527577938076e+00,5.419664268585131506e-01,3.769784172661870603e+00
9.407522418401792486e-01,-6.602768903088392094e-02,-2.406815761448349300e-01,3.301384451544196047e-02,9.172661870503597825e+00,4.244604316546762846e-01,3.705035971223021640e+00
9.457102762391508266e-01,-6.496272630457934627e-02,-2.289669861554845531e-01,2.768903088391906284e-02,9.235011990407674176e+00,3.237410071942445899e-01,3.702637889688249473e+00
9.506683106381224047e-01,-6.070287539936101984e-02,-2.183173588924387509e-01,1.171458998935037341e-02,9.170263788968824770e+00,3.573141486810551548e-01,3.678657074340527799e+00
9.556263450370939827e-01,-6.070287539936101984e-02,-2.119275825346112752e-01,0.000000000000000000e+00,8.992805755395682610e+00,4.724220623501199090e-01,3.810551558752997447e+00
9.605843794360655608e-01,-5.111821086261980618e-02,-2.161874334398296016e-01,0.000000000000000000e+00,8.944844124700239263e+00,4.820143884892086339e-01,3.760191846522781933e+00
9.655424138350371388e-01,-4.685835995740149362e-02,-2.215122470713525027e-01,3.194888178913737886e-03,9.122302158273381423e+00,3.117505995203836977e-01,3.772182254196642770e+00
9.705004482340087169e-01,-3.620873269435569836e-02,-2.204472843450479280e-01,-1.490947816826411129e-02,9.237410071942445455e+00,2.494004796163069582e-01,3.764988009592326268e+00
9.754584826329804059e-01,-3.940362087326943624e-02,-2.268370607028754038e-01,-3.727369542066027996e-02,9.117505995203837088e+00,4.076738609112710021e-01,3.824940047961630896e+00
9.804165170319519840e-01,-3.407880724174654208e-02,-2.364217252396166036e-01,-4.685835995740149362e-02,9.021582733812950394e+00,6.594724220623501276e-01,3.829736211031175230e+00
9.853745514309235620e-01,-2.449414270500532495e-02,-2.374866879659212060e-01,-3.727369542066027996e-02,8.944844124700239263e+00,7.098321342925659749e-01,3.803357314148680945e+00
9.903325858298951401e-01,-2.023429179978700893e-02,-2.364217252396166036e-01,-2.342917997870074681e-02,9.098321342925659749e+00,5.515587529976019310e-01,3.964028776978417046e+00
9.952906202288667181e-01,-9.584664536741213658e-03,-2.492012779552715551e-01,-2.768903088391906284e-02,9.191846522781775164e+00,5.011990407673860837e-01,3.935251798561151038e+00
1.000248654627838185e+00,-1.277955271565495154e-02,-2.651757188498402584e-01,-3.833865814696485463e-02,9.103117505995204084e+00,6.786570743405275774e-01,3.947242206235011874e+00
1.005206689026809874e+00,-4.259850905218317760e-03,-2.768903088391906353e-01,-3.407880724174654208e-02,8.978417266187049606e+00,9.016786570743404727e-01,3.741007194244604150e+00
1.010164723425781341e+00,3.194888178913737886e-03,-2.747603833865814860e-01,-4.259850905218317760e-03,9.052757793764987682e+00,8.776978417266186883e-01,3.652278177458033515e+00
1.015122757824753030e+00,1.277955271565495154e-02,-2.577209797657081802e-01,2.981895633652822258e-02,9.187050359712230829e+00,6.594724220623501276e-01,3.577937649880095883e+00
1.020080792223724497e+00,1.171458998935037341e-02,-2.438764643237486818e-01,3.833865814696485463e-02,9.285371702637888802e+00,4.628297362110311841e-01,3.640287769784172678e+00
1.025038826622696186e+00,4.259850905218317760e-03,-2.460063897763578311e-01,2.342917997870074681e-02,9.239808153477218511e+00,4.964028776978417490e-01,3.657074340527577849e+00
1.029996861021667653e+00,0.000000000000000000e+00,-2.545260915867944562e-01,1.490947816826411129e-02,9.124700239808152702e+00,5.707434052757793808e-01,3.479616306954436578e+00
1.034954895420639343e+00,-1.064962726304579353e-02,-2.481363152289669805e-01,2.129925452609158706e-02,9.074340527577938076e+00,6.019184652278177783e-01,3.357314148681055155e+00
1.039912929819610810e+00,-1.597444089456868943e-02,-2.310969116080937302e-01,2.981895633652822258e-02,9.167865707434053490e+00,5.443645083932853179e-01,3.239808153477218067e+00
1.044870964218582499e+00,-3.301384451544196047e-02,-2.129925452609158776e-01,2.555910543130990309e-02,9.302158273381294862e+00,4.340527577937650094e-01,3.376498800959232494e+00
1.049828998617554188e+00,-5.005324813631523151e-02,-2.087326943556975511e-01,4.259850905218317760e-03,9.258992805755395850e+00,4.748201438848920763e-01,3.414868105515587615e+00
1.054787033016525655e+00,-7.348242811501597138e-02,-2.066027689030884018e-01,-1.064962726304579353e-02,9.071942446043165020e+00,5.587529976019184330e-01,3.501199040767386084e+00
1.059745067415497344e+00,-8.413205537806177359e-02,-2.097976570820021258e-01,-1.171458998935037341e-02,8.995203836930455665e+00,5.827338129496403285e-01,3.479616306954436578e+00
1.064703101814468811e+00,-8.945686900958466081e-02,-2.066027689030884018e-01,-7.454739084132055646e-03,9.079136690647482411e+00,5.131894484412470314e-01,3.472422062350120076e+00
1.069661136213440500e+00,-9.158679446219382403e-02,-2.034078807241746500e-01,-7.454739084132055646e-03,9.179856115107913439e+00,4.388489208633093441e-01,3.553956834532374209e+00
1.074619170612411967e+00,-8.732694355697551147e-02,-2.012779552715655007e-01,-1.490947816826411129e-02,9.122302158273381423e+00,5.131894484412470314e-01,3.618705035971223172e+00
1.079577205011383656e+00,-8.306709265175718504e-02,-2.055378061767837994e-01,-1.490947816826411129e-02,8.980815347721822661e+00,6.043165467625899456e-01,3.714628297362110310e+00
1.084535239410355123e+00,-6.389776357827475772e-02,-2.108626198083067005e-01,0.000000000000000000e+00,8.918465227817746310e+00,6.354916067146283432e-01,3.621103117505995339e+00
1.089493273809326812e+00,-4.898828541001064990e-02,-2.129925452609158776e-01,1.597444089456868943e-02,8.988009592326138275e+00,5.059952038369304184e-01,3.630695443645084008e+00
1.094451308208298501e+00,-3.088391906283280072e-02,-2.119275825346112752e-01,2.449414270500532495e-02,9.091127098321342359e+00,3.788968824940047719e-01,3.621103117505995339e+00
1.099409342607269968e+00,-1.384451544195953142e-02,-2.183173588924387509e-01,2.555910543130990309e-02,9.107913669064748419e+00,2.973621103117505826e-01,3.604316546762589724e+00
1.104367377006241657e+00,5.324813631522896766e-03,-2.183173588924387509e-01,2.768903088391906284e-02,9.088729016786571080e+00,2.446043165467625957e-01,3.549160671462829875e+00
1.109325411405213124e+00,2.129925452609158706e-02,-2.129925452609158776e-01,2.449414270500532495e-02,9.047961630695443347e+00,1.247002398081534791e-01,3.436450839328537121e+00
1.114283445804184813e+00,3.301384451544196047e-02,-2.097976570820021258e-01,1.384451544195953142e-02,9.035971223021583398e+00,1.918465227817745672e-02,3.472422062350120076e+00
1.119241480203156280e+00,4.046858359957401785e-02,-2.119275825346112752e-01,-7.454739084132055646e-03,8.988009592326138275e+00,3.597122302158273222e-02,3.446043165467625791e+00
1.124199514602127969e+00,3.407880724174654208e-02,-2.151224707135250269e-01,-3.088391906283280072e-02,8.925659472422061924e+00,5.275779376498800771e-02,3.496402877697841749e+00
1.129157549001099436e+00,3.301384451544196047e-02,-2.215122470713525027e-01,-5.111821086261980618e-02,8.952038369304556653e+00,2.637889688249400386e-02,3.431654676258992787e+00
1.134115583400071126e+00,2.981895633652822258e-02,-2.183173588924387509e-01,-7.241746538871139671e-02,8.976019184652278327e+00,7.194244604316547137e-03,3.364508393285371657e+00
1.139073617799042815e+00,1.810436634717784918e-02,-2.193823216187433534e-01,-9.478168264110756192e-02,8.894484412470024637e+00,1.103117505995203779e-01,3.282973621103117523e+00
1.144031652198014282e+00,0.000000000000000000e+00,-2.140575079872204523e-01,-1.171458998935037271e-01,8.803357314148680501e+00,2.781774580335731328e-01,3.323741007194244812e+00
1.148989686596985971e+00,-1.916932907348242732e-02,-2.097976570820021258e-01,-1.331203407880724165e-01,8.829736211031175230e+00,2.829736211031175230e-01,3.417266187050359783e+00
1.153947720995957438e+00,-3.407880724174654208e-02,-2.076677316293929765e-01,-1.469648562300319428e-01,8.930455635491606259e+00,2.014388489208633060e-01,3.520383693045563422e+00
1.158905755394929127e+00,-4.579339723109691201e-02,-2.129925452609158776e-01,-1.671991480298189447e-01,8.839328537170263900e+00,2.158273381294963933e-01,3.496402877697841749e+00
1.163863789793900594e+00,-5.218317358892438779e-02,-2.183173588924387509e-01,-1.842385516506922227e-01,8.731414868105515481e+00,3.693045563549160470e-01,3.515587529976019088e+00
1.168821824192872283e+00,-4.898828541001064990e-02,-2.300319488817891278e-01,-1.831735889243876481e-01,8.570743405275779381e+00,4.700239808153477417e-01,3.503597122302158251e+00
1.173779858591843750e+00,-4.046858359957401785e-02,-2.342917997870074542e-01,-1.629392971246006461e-01,8.573141486810552436e+00,4.268585131894484519e-01,3.474820143884892243e+00
1.178737892990815439e+00,-2.768903088391906284e-02,-2.353567625133120289e-01,-1.458998935037273681e-01,8.683453237410072134e+00,3.213429256594724226e-01,3.477218225419664410e+00
1.183695927389787128e+00,-1.597444089456868943e-02,-2.406815761448349300e-01,-1.437699680511182188e-01,8.752997601918465875e+00,2.422062350119904006e-01,3.465227817745803574e+00
1.188653961788758595e+00,-7.454739084132055646e-03,-2.545260915867944562e-01,-1.512247071352502692e-01,8.736211031175059816e+00,2.805755395683453002e-01,3.378896882494004661e+00
1.193611996187730284e+00,6.389776357827475772e-03,-2.619808306709265344e-01,-1.501597444089456945e-01,8.664268585131894795e+00,3.621103117505995450e-01,3.117505995203837088e+00
1.198570030586701751e+00,1.703940362087327104e-02,-2.545260915867944562e-01,-1.458998935037273681e-01,8.664268585131894795e+00,3.237410071942445899e-01,2.889688249400479414e+00
1.203528064985673440e+00,2.875399361022364098e-02,-2.279020234291799785e-01,-1.427050053248136441e-01,8.916067146282973255e+00,2.805755395683453002e-01,2.880095923261390745e+00
1.208486099384644907e+00,3.620873269435569836e-02,-2.034078807241746500e-01,-1.437699680511182188e-01,8.949640287769783598e+00,3.237410071942445899e-01,2.983213429256594829e+00
1.213444133783616596e+00,4.046858359957401785e-02,-1.895633652822151238e-01,-1.437699680511182188e-01,8.865707434052758629e+00,4.676258992805755188e-01,3.052757793764988126e+00
1.218402168182588063e+00,3.940362087326943624e-02,-1.810436634717784987e-01,-1.395101171458998923e-01,8.729016786570744202e+00,5.731414868105515481e-01,3.033573141486810343e+00
1.223360202581559752e+00,3.620873269435569836e-02,-1.703940362087326965e-01,-1.267305644302449408e-01,8.625899280575540118e+00,6.498800959232613472e-01,3.103117505995203640e+00
1.228318236980531442e+00,2.981895633652822258e-02,-1.640042598509052207e-01,-1.150159744408945639e-01,8.573141486810552436e+00,6.978417266187050272e-01,3.261390887290168017e+00
1.233276271379502909e+00,1.810436634717784918e-02,-1.703940362087326965e-01,-1.001064962726304630e-01,8.582733812949641106e+00,7.482014388489208745e-01,3.378896882494004661e+00
1.238234305778474598e+00,6.389776357827475772e-03,-1.853035143769967974e-01,-8.093716719914803570e-02,8.580335731414868050e+00,8.153477218225420042e-01,3.359712230215827322e+00
1.243192340177446065e+00,-8.519701810436635520e-03,-1.948881789137380249e-01,-6.070287539936101984e-02,8.563549160671461991e+00,8.872901678657074687e-01,3.232613908872901565e+00
1.248150374576417754e+00,-2.449414270500532495e-02,-1.959531416400425996e-01,-3.514376996805111675e-02,8.553956834532373321e+00,8.992805755395683054e-01,3.122302158273381423e+00
1.253108408975389221e+00,-4.153354632587859252e-02,-1.863684771033013721e-01,-8.519701810436635520e-03,8.592326139088729775e+00,8.705035971223021862e-01,3.062350119904076795e+00
1.258066443374360910e+00,-5.857294994675186356e-02,-1.778487752928647470e-01,1.810436634717784918e-02,8.669064748201439130e+00,7.889688249400479414e-01,2.973621103117506159e+00
1.263024477773332377e+00,-7.987220447284344715e-02,-1.693290734824281218e-01,3.301384451544196047e-02,8.693045563549160804e+00,6.834532374100719121e-01,2.923261390887290201e+00
1.267982512172304066e+00,-1.054313099041533502e-01,-1.608093716719914690e-01,3.833865814696485463e-02,8.630695443645084453e+00,6.043165467625899456e-01,2.872901678657074243e+00
1.272940546571275755e+00,-1.288604898828540901e-01,-1.512247071352502692e-01,3.940362087326943624e-02,8.657074340527577405e+00,4.988009592326139163e-01,2.712230215827338142e+00
1.277898580970247222e+00,-1.490947816826411199e-01,-1.395101171458998923e-01,3.620873269435569836e-02,8.733812949640288537e+00,3.477218225419664299e-01,2.520383693045563422e+00
1.282856615369218911e+00,-1.640042598509052207e-01,-1.171458998935037271e-01,2.555910543130990309e-02,8.800959232613909222e+00,2.326139088729016757e-01,2.458033573141486627e+00
1.287814649768190378e+00,-1.735889243876464205e-01,-8.839190628328008614e-02,1.171458998935037341e-02,8.803357314148680501e+00,1.918465227817745811e-01,2.544364508393285540e+00
1.292772684167162067e+00,-1.714589989350372712e-01,-6.283280085197018305e-02,6.389776357827475772e-03,8.827338129496402175e+00,1.462829736211031240e-01,2.606714628297361891e+00
1.297730718566133534e+00,-1.640042598509052207e-01,-4.259850905218317413e-02,2.129925452609158880e-03,8.892086330935251581e+00,9.112709832134292809e-02,2.594724220623501054e+00
1.302688752965105223e+00,-1.512247071352502692e-01,-1.916932907348242732e-02,-5.324813631522896766e-03,8.952038369304556653e+00,5.515587529976018893e-02,2.582733812949640217e+00
1.307646787364076690e+00,-1.384451544195953177e-01,1.171458998935037341e-02,-1.916932907348242732e-02,8.913669064748201976e+00,1.366906474820143991e-01,2.678657074340527799e+00
1.312604821763048379e+00,-1.235356762513312029e-01,4.153354632587859252e-02,-2.555910543130990309e-02,8.805755395683453557e+00,2.709832134292565753e-01,2.952038369304556209e+00
1.317562856162020068e+00,-9.797657082002129980e-02,5.537806176783812567e-02,-1.490947816826411129e-02,8.745803357314148485e+00,3.237410071942445899e-01,3.170263788968824770e+00
1.322520890560991536e+00,-7.135250266240682204e-02,5.857294994675186356e-02,-6.389776357827475772e-03,8.762589928057554545e+00,3.141486810551558650e-01,3.342925659472422151e+00
1.327478924959963225e+00,-4.792332268370606829e-02,5.644302449414270728e-02,1.064962726304579440e-03,8.762589928057554545e+00,3.261390887290168128e-01,3.402877697841726778e+00
1.332436959358934692e+00,-2.449414270500532495e-02,4.685835995740149362e-02,7.454739084132055646e-03,8.705035971223020752e+00,3.908872901678657197e-01,3.472422062350120076e+00
1.337394993757906381e+00,-1.064962726304579440e-03,3.833865814696485463e-02,1.597444089456868943e-02,8.645083932853717457e+00,4.364508393285371768e-01,3.537170263788969038e+00
1.342353028156877848e+00,2.129925452609158706e-02,3.194888178913737886e-02,2.875399361022364098e-02,8.635491606714628787e+00,4.172661870503597270e-01,3.589928057553956720e+00
1.347311062555849537e+00,3.620873269435569836e-02,1.597444089456868943e-02,3.833865814696485463e-02,8.714628297362111198e+00,2.781774580335731328e-01,3.630695443645084008e+00
1.352269096954821004e+00,4.366347177848775574e-02,-7.454739084132055646e-03,3.407880724174654208e-02,8.846522781774579514e+00,1.270983213429256464e-01,3.549160671462829875e+00
1.357227131353792693e+00,4.685835995740149362e-02,-2.662406815761448470e-02,1.277955271565495154e-02,8.808153477218224836e+00,1.966426858513189435e-01,3.465227817745803574e+00
1.362185165752764382e+00,4.685835995740149362e-02,-4.685835995740149362e-02,0.000000000000000000e+00,8.729016786570744202e+00,2.925659472422062479e-01,3.263788968824940184e+00
1.367143200151735849e+00,4.153354632587859252e-02,-5.218317358892438779e-02,-6.389776357827475772e-03,8.841726618705035179e+00,2.829736211031175230e-01,3.215827338129496393e+00
1.372101234550707538e+00,3.833865814696485463e-02,-5.111821086261980618e-02,-1.597444089456868943e-02,8.935251798561150594e+00,1.438848920863309289e-01,3.194244604316546887e+00
1.377059268949679005e+00,3.194888178913737886e-02,-5.537806176783812567e-02,-3.514376996805111675e-02,9.083932853717026745e+00,2.398081534772182263e-02,3.275779376498801021e+00
1.382017303348650694e+00,2.981895633652822258e-02,-7.135250266240682204e-02,-6.176783812566560145e-02,8.980815347721822661e+00,1.462829736211031240e-01,3.242206235011990234e+00
1.386975337747622161e+00,2.236421725239616520e-02,-8.200212992545261037e-02,-7.774227902023429781e-02,8.882494004796162912e+00,3.093525179856115304e-01,3.254196642685851515e+00
1.391933372146593850e+00,2.236421725239616520e-02,-8.732694355697551147e-02,-7.774227902023429781e-02,8.911270983213428920e+00,3.956834532374100544e-01,3.105515587529975807e+00
1.396891406545565317e+00,2.342917997870074681e-02,-8.200212992545261037e-02,-6.815761448349308416e-02,9.043165467625899012e+00,3.573141486810551548e-01,3.043165467625899456e+00
1.401849440944537006e+00,1.597444089456868943e-02,-7.561235356762513460e-02,-7.241746538871139671e-02,9.115107913669064033e+00,3.309352517985611475e-01,3.083932853717026301e+00
1.406807475343508695e+00,5.324813631522896766e-03,-7.774227902023429781e-02,-7.987220447284344715e-02,9.124700239808152702e+00,4.100719424460431695e-01,3.093525179856114971e+00
1.411765509742480162e+00,-1.064962726304579440e-03,-7.667731629392970927e-02,-7.774227902023429781e-02,9.093525179856115415e+00,4.772182254196642437e-01,3.031175059952038175e+00
1.416723544141451852e+00,-2.129925452609158880e-03,-6.815761448349308416e-02,-7.348242811501597138e-02,9.112709832134292753e+00,4.868105515587530241e-01,2.853717026378896904e+00
1.421681578540423319e+00,-1.384451544195953142e-02,-5.431309904153354406e-02,-6.602768903088392094e-02,9.201438848920863833e+00,4.436450839328537343e-01,2.841726618705036067e+00
1.426639612939395008e+00,-2.236421725239616520e-02,-3.514376996805111675e-02,-6.602768903088392094e-02,9.270983213429255798e+00,4.604316546762590168e-01,2.844124700239808234e+00
1.431597647338366475e+00,-3.620873269435569836e-02,-2.342917997870074681e-02,-6.709265175718849561e-02,9.292565947242206192e+00,4.532374100719424592e-01,2.851318944844124736e+00
1.436555681737338164e+00,-4.685835995740149362e-02,-1.703940362087327104e-02,-6.922257720979765883e-02,9.191846522781775164e+00,4.556354916067146266e-01,2.805755395683453113e+00
1.441513716136309631e+00,-5.750798722044728195e-02,-3.194888178913737886e-03,-6.709265175718849561e-02,9.115107913669064033e+00,4.772182254196642437e-01,2.805755395683453113e+00
1.446471750535281320e+00,-6.815761448349308416e-02,5.324813631522896766e-03,-6.815761448349308416e-02,9.139088729016785706e+00,4.028776978417266119e-01,2.824940047961630896e+00
1.451429784934253009e+00,-7.561235356762513460e-02,1.064962726304579353e-02,-7.028753993610223350e-02,9.225419664268585507e+00,3.357314148681055377e-01,2.865707434052757741e+00
1.456387819333224476e+00,-8.413205537806177359e-02,1.597444089456868943e-02,-7.987220447284344715e-02,9.278177458033573188e+00,2.997601918465228055e-01,2.923261390887290201e+00
1.461345853732196165e+00,-8.626198083067092293e-02,2.449414270500532495e-02,-8.732694355697551147e-02,9.203836930455635112e+00,3.980815347721822772e-01,2.904076738609112862e+00
1.466303888131167632e+00,-8.413205537806177359e-02,3.407880724174654208e-02,-8.519701810436634826e-02,9.127098321342925757e+00,4.940047961630695261e-01,2.983213429256594829e+00
1.471261922530139321e+00,-7.880724174653887248e-02,4.579339723109691201e-02,-7.348242811501597138e-02,9.100719424460431028e+00,5.323741007194244812e-01,3.035971223021582954e+00
1.476219956929110788e+00,-7.880724174653887248e-02,5.005324813631523151e-02,-6.176783812566560145e-02,9.136690647482014427e+00,5.107913669064748641e-01,3.175059952038369104e+00
1.481177991328082477e+00,-7.774227902023429781e-02,4.579339723109691201e-02,-5.857294994675186356e-02,9.170263788968824770e+00,5.323741007194244812e-01,3.249400479616306736e+00
1.486136025727053944e+00,-7.880724174653887248e-02,3.940362087326943624e-02,-5.537806176783812567e-02,9.151079136690647431e+00,5.803357314148680501e-01,3.208633093525179891e+00
1.491094060126025633e+00,-7.774227902023429781e-02,3.727369542066027996e-02,-4.366347177848775574e-02,9.160671462829736100e+00,5.851318944844124958e-01,3.175059952038369104e+00
1.496052094524997322e+00,-7.348242811501597138e-02,4.046858359957401785e-02,-2.981895633652822258e-02,9.177458033573142160e+00,5.947242206235011652e-01,3.119904076738609255e+00
1.501010128923968789e+00,-7.348242811501597138e-02,4.792332268370606829e-02,-2.023429179978700893e-02,9.196642685851319499e+00,5.443645083932853179e-01,3.153477218225419598e+00
1.505968163322940478e+00,-6.709265175718849561e-02,4.685835995740149362e-02,-1.384451544195953142e-02,9.227817745803356786e+00,5.035971223021582510e-01,3.230215827338129397e+00
1.510926197721911945e+00,-6.709265175718849561e-02,3.833865814696485463e-02,-7.454739084132055646e-03,9.232613908872901121e+00,4.604316546762590168e-01,3.266187050359712352e+00
1.515884232120883635e+00,-6.815761448349308416e-02,2.981895633652822258e-02,-8.519701810436635520e-03,9.232613908872901121e+00,4.508393285371702364e-01,3.211031175059952059e+00
1.520842266519855102e+00,-7.241746538871139671e-02,2.662406815761448470e-02,-9.584664536741213658e-03,9.206235011990408168e+00,4.340527577937650094e-01,3.172661870503596937e+00
1.525800300918826791e+00,-7.774227902023429781e-02,2.129925452609158706e-02,-9.584664536741213658e-03,9.189448441247002108e+00,4.868105515587530241e-01,3.230215827338129397e+00
1.530758335317798258e+00,-8.200212992545261037e-02,1.490947816826411129e-02,-5.324813631522896766e-03,9.201438848920863833e+00,4.988009592326139163e-01,3.258992805755395850e+00
1.535716369716769947e+00,-8.945686900958466081e-02,4.259850905218317760e-03,-5.324813631522896766e-03,9.230215827338129841e+00,4.340527577937650094e-01,3.235011990407673732e+00
1.540674404115741636e+00,-9.691160809371672513e-02,-7.454739084132055646e-03,-1.064962726304579353e-02,9.235011990407674176e+00,3.645083932853717124e-01,3.170263788968824770e+00
1.545632438514713103e+00,-1.043663471778487756e-01,-1.277955271565495154e-02,-1.810436634717784918e-02,9.215827338129496837e+00,3.764988009592326046e-01,3.129496402877697925e+00
1.550590472913684792e+00,-1.096911608093716767e-01,-1.490947816826411129e-02,-2.342917997870074681e-02,9.182254196642686495e+00,3.525179856115107646e-01,3.095923261390887138e+00
1.555548507312656259e+00,-1.086261980830670881e-01,-1.277955271565495154e-02,-2.555910543130990309e-02,9.208633093525179447e+00,3.261390887290168128e-01,3.081534772182254134e+00
1.560506541711627948e+00,-1.054313099041533502e-01,-1.064962726304579353e-02,-2.981895633652822258e-02,9.220623501199041172e+00,2.637889688249400733e-01,3.019184652278177339e+00
1.565464576110599415e+00,-9.904153354632587447e-02,-1.064962726304579353e-02,-3.727369542066027996e-02,9.249400479616307180e+00,1.822541966426858562e-01,3.035971223021582954e+00
1.570422610509571104e+00,-8.732694355697551147e-02,-1.384451544195953142e-02,-5.005324813631523151e-02,9.247002398081534125e+00,1.678657074340527688e-01,3.062350119904076795e+00
1.575380644908542571e+00,-7.241746538871139671e-02,-1.916932907348242732e-02,-6.389776357827475772e-02,9.290167865707434913e+00,1.798561151079136611e-01,3.031175059952038175e+00
1.580338679307514260e+00,-5.537806176783812567e-02,-1.810436634717784918e-02,-7.135250266240682204e-02,9.251798561151078459e+00,2.685851318944844079e-01,3.002398081534772167e+00
1.585296713706485949e+00,-3.514376996805111675e-02,-1.277955271565495154e-02,-7.135250266240682204e-02,9.230215827338129841e+00,3.213429256594724226e-01,3.055155875299760293e+00
1.590254748105457416e+00,-1.810436634717784918e-02,-1.277955271565495154e-02,-6.922257720979765883e-02,9.292565947242206192e+00,3.165467625899280324e-01,3.083932853717026301e+00
1.595212782504429105e+00,1.064962726304579440e-03,-2.023429179978700893e-02,-6.922257720979765883e-02,9.302158273381294862e+00,3.597122302158273222e-01,3.086330935251798468e+00
1.600170816903400572e+00,1.171458998935037341e-02,-2.662406815761448470e-02,-7.135250266240682204e-02,9.278177458033573188e+00,4.364508393285371768e-01,3.057553956834532460e+00
1.605128851302372262e+00,1.916932907348242732e-02,-3.407880724174654208e-02,-7.135250266240682204e-02,9.235011990407674176e+00,4.964028776978417490e-01,3.007194244604316502e+00
1.610086885701343729e+00,2.129925452609158706e-02,-3.301384451544196047e-02,-6.389776357827475772e-02,9.266187050359711463e+00,5.155875299760191988e-01,2.964028776978417046e+00
1.615044920100315418e+00,1.597444089456868943e-02,-3.088391906283280072e-02,-5.644302449414270728e-02,9.328537170263789591e+00,5.179856115107913661e-01,2.928057553956834536e+00
1.620002954499286885e+00,9.584664536741213658e-03,-2.768903088391906284e-02,-5.750798722044728195e-02,9.345323741007193874e+00,5.035971223021582510e-01,2.841726618705036067e+00
1.624960988898258574e+00,-1.064962726304579440e-03,-2.236421725239616520e-02,-5.750798722044728195e-02,9.309352517985612252e+00,5.731414868105515481e-01,2.827338129496403063e+00
1.629919023297230041e+00,-1.277955271565495154e-02,-1.277955271565495154e-02,-5.537806176783812567e-02,9.326139088729016535e+00,6.258992805755395628e-01,2.784172661870503607e+00
1.634877057696201730e+00,-2.449414270500532495e-02,0.000000000000000000e+00,-4.898828541001064990e-02,9.424460431654676285e+00,5.995203836930456109e-01,2.791366906474820109e+00
1.639835092095173419e+00,-4.366347177848775574e-02,1.703940362087327104e-02,-4.685835995740149362e-02,9.436450839328538009e+00,5.995203836930456109e-01,2.786570743405275774e+00
1.644793126494144886e+00,-6.070287539936101984e-02,3.407880724174654208e-02,-5.324813631522896940e-02,9.328537170263789591e+00,6.546762589928057929e-01,2.889688249400479414e+00
1.649751160893116575e+00,-7.348242811501597138e-02,3.727369542066027996e-02,-5.218317358892438779e-02,9.237410071942445455e+00,7.194244604316546443e-01,2.997601918465227833e+00
1.654709195292088042e+00,-8.093716719914803570e-02,3.514376996805111675e-02,-3.833865814696485463e-02,9.254196642685851515e+00,6.690647482014387970e-01,3.021582733812949506e+00
1.659667229691059731e+00,-8.839190628328008614e-02,3.301384451544196047e-02,-3.194888178913737886e-02,9.330935251798560870e+00,5.947242206235011652e-01,3.019184652278177339e+00
1.664625264090031198e+00,-9.265175718849839870e-02,3.088391906283280072e-02,-3.194888178913737886e-02,9.311750599520383531e+00,6.594724220623501276e-01,3.004796163069544335e+00
1.669583298489002887e+00,-9.158679446219382403e-02,2.875399361022364098e-02,-2.662406815761448470e-02,9.285371702637888802e+00,7.002398081534771945e-01,3.023980815347721673e+00
1.674541332887974354e+00,-9.158679446219382403e-02,2.342917997870074681e-02,-1.810436634717784918e-02,9.266187050359711463e+00,7.002398081534771945e-01,2.954436450839328376e+00
1.679499367286946043e+00,-9.158679446219382403e-02,2.449414270500532495e-02,-6.389776357827475772e-03,9.304556354916067917e+00,6.450839328537170125e-01,2.930455635491606703e+00
1.684457401685917732e+00,-8.839190628328008614e-02,2.768903088391906284e-02,1.064962726304579440e-03,9.376498800959232938e+00,5.899280575539568305e-01,2.865707434052757741e+00
1.689415436084889199e+00,-8.626198083067092293e-02,3.088391906283280072e-02,2.129925452609158880e-03,9.362110311750599934e+00,6.091127098321342803e-01,2.877697841726618577e+00
1.694373470483860888e+00,-8.306709265175718504e-02,3.514376996805111675e-02,8.519701810436635520e-03,9.328537170263789591e+00,6.139088729016786150e-01,2.834532374100719565e+00
1.699331504882832355e+00,-7.454739084132055993e-02,4.579339723109691201e-02,1.703940362087327104e-02,9.376498800959232938e+00,5.323741007194244812e-01,2.769784172661870603e+00
1.704289539281804045e+00,-6.709265175718849561e-02,6.283280085197018305e-02,2.023429179978700893e-02,9.448441247002397958e+00,4.460431654676259017e-01,2.776978417266187105e+00
1.709247573680775512e+00,-5.644302449414270728e-02,7.667731629392970927e-02,1.384451544195953142e-02,9.424460431654676285e+00,3.932853717026378870e-01,2.810551558752997447e+00
1.714205608079747201e+00,-4.898828541001064990e-02,8.626198083067092293e-02,1.064962726304579353e-02,9.390887290167865942e+00,4.220623501199040617e-01,2.882494004796162912e+00
1.719163642478718668e+00,-4.259850905218317413e-02,9.691160809371672513e-02,8.519701810436635520e-03,9.359712230215826878e+00,4.772182254196642437e-01,2.908872901678657197e+00
1.724121676877690357e+00,-3.620873269435569836e-02,1.022364217252396124e-01,7.454739084132055646e-03,9.347721822541966930e+00,5.323741007194244812e-01,2.940047961630695372e+00
1.729079711276662046e+00,-3.514376996805111675e-02,1.086261980830670881e-01,3.194888178913737886e-03,9.330935251798560870e+00,5.707434052757793808e-01,3.083932853717026301e+00
1.734037745675633513e+00,-3.620873269435569836e-02,1.075612353567625135e-01,3.194888178913737886e-03,9.326139088729016535e+00,5.635491606714628787e-01,3.208633093525179891e+00
1.738995780074605202e+00,-4.153354632587859252e-02,9.691160809371672513e-02,-1.064962726304579440e-03,9.338129496402878260e+00,5.971223021582733326e-01,3.304556354916067029e+00
1.743953814473576669e+00,-4.366347177848775574e-02,8.306709265175718504e-02,-5.324813631522896766e-03,9.278177458033573188e+00,6.474820143884891799e-01,3.311750599520383531e+00
1.748911848872548358e+00,-4.898828541001064990e-02,6.815761448349308416e-02,-6.389776357827475772e-03,9.237410071942445455e+00,6.882494004796163578e-01,3.306954436450839196e+00
1.753869883271519825e+00,-5.324813631522896940e-02,5.324813631522896940e-02,1.064962726304579440e-03,9.230215827338129841e+00,6.930455635491606925e-01,3.314148681055155699e+00
1.758827917670491514e+00,-5.537806176783812567e-02,4.046858359957401785e-02,8.519701810436635520e-03,9.297362110311750527e+00,6.930455635491606925e-01,3.297362110311750527e+00
1.763785952069462981e+00,-5.963791267305644517e-02,2.875399361022364098e-02,1.384451544195953142e-02,9.350119904076738209e+00,5.971223021582733326e-01,3.290167865707434025e+00
1.768743986468434670e+00,-6.176783812566560145e-02,1.810436634717784918e-02,1.277955271565495154e-02,9.354916067146282543e+00,5.731414868105515481e-01,3.211031175059952059e+00
1.773702020867406359e+00,-6.176783812566560145e-02,1.171458998935037341e-02,1.277955271565495154e-02,9.345323741007193874e+00,5.515587529976019310e-01,3.146282973621103096e+00
1.778660055266377826e+00,-5.644302449414270728e-02,1.277955271565495154e-02,1.597444089456868943e-02,9.347721822541966930e+00,5.491606714628297636e-01,3.093525179856114971e+00
1.783618089665349515e+00,-5.218317358892438779e-02,1.490947816826411129e-02,2.129925452609158706e-02,9.386091127098321607e+00,5.131894484412470314e-01,3.081534772182254134e+00
1.788576124064320982e+00,-4.685835995740149362e-02,1.703940362087327104e-02,2.236421725239616520e-02,9.364508393285371213e+00,4.796163069544364665e-01,3.031175059952038175e+00
1.793534158463292671e+00,-4.472843450479233041e-02,2.023429179978700893e-02,2.129925452609158706e-02,9.362110311750599934e+00,4.964028776978417490e-01,3.000000000000000000e+00
1.798492192862264138e+00,-4.472843450479233041e-02,2.662406815761448470e-02,2.342917997870074681e-02,9.388489208633092886e+00,5.323741007194244812e-01,2.959232613908872711e+00
1.803450227261235828e+00,-4.898828541001064990e-02,3.301384451544196047e-02,2.662406815761448470e-02,9.378896882494004217e+00,5.707434052757793808e-01,2.952038369304556209e+00
1.808408261660207295e+00,-5.431309904153354406e-02,4.259850905218317413e-02,2.449414270500532495e-02,9.371702637889688603e+00,5.707434052757793808e-01,2.978417266187050494e+00
1.813366296059178984e+00,-6.176783812566560145e-02,4.792332268370606829e-02,2.449414270500532495e-02,9.359712230215826878e+00,5.539568345323740983e-01,3.019184652278177339e+00
1.818324330458150673e+00,-7.028753993610223350e-02,5.111821086261980618e-02,2.449414270500532495e-02,9.395683453237410276e+00,5.563549160671462657e-01,3.035971223021582954e+00
1.823282364857122140e+00,-7.774227902023429781e-02,5.005324813631523151e-02,1.916932907348242732e-02,9.422062350119903229e+00,5.227817745803357008e-01,3.033573141486810343e+00
1.828240399256093829e+00,-8.306709265175718504e-02,5.431309904153354406e-02,1.490947816826411129e-02,9.366906474820144268e+00,5.251798561151078681e-01,3.028776978417266008e+00
1.833198433655065296e+00,-8.839190628328008614e-02,5.537806176783812567e-02,1.597444089456868943e-02,9.335731414868105205e+00,5.203836930455635335e-01,3.091127098321342803e+00
1.838156468054036985e+00,-8.945686900958466081e-02,5.537806176783812567e-02,1.490947816826411129e-02,9.345323741007193874e+00,4.796163069544364665e-01,3.134292565947242259e+00
1.843114502453008452e+00,-8.839190628328008614e-02,5.324813631522896940e-02,1.171458998935037341e-02,9.371702637889688603e+00,4.124700239808153368e-01,3.194244604316546887e+00
1.848072536851980141e+00,-8.200212992545261037e-02,4.685835995740149362e-02,7.454739084132055646e-03,9.311750599520383531e+00,4.052757793764987793e-01,3.225419664268585063e+00
1.853030571250951608e+00,-7.667731629392970927e-02,4.046858359957401785e-02,2.129925452609158880e-03,9.273381294964028854e+00,4.388489208633093441e-01,3.242206235011990234e+00
1.857988605649923297e+00,-6.496272630457934627e-02,3.620873269435569836e-02,2.129925452609158880e-03,9.287769784172661858e+00,4.004796163069544446e-01,3.211031175059952059e+00
1.862946640048894986e+00,-4.792332268370606829e-02,3.194888178913737886e-02,3.194888178913737886e-03,9.306954436450839196e+00,3.237410071942445899e-01,3.191846522781774720e+00
1.867904674447866453e+00,-3.194888178913737886e-02,3.407880724174654208e-02,1.064962726304579440e-03,9.354916067146282543e+00,2.997601918465228055e-01,3.172661870503596937e+00
1.872862708846838142e+00,-1.597444089456868943e-02,3.727369542066027996e-02,-2.129925452609158880e-03,9.335731414868105205e+00,2.997601918465228055e-01,3.127098321342925757e+00
1.877820743245809609e+00,-3.194888178913737886e-03,3.940362087326943624e-02,-5.324813631522896766e-03,9.314148681055156587e+00,2.973621103117505826e-01,3.100719424460431473e+00
1.882778777644781298e+00,1.171458998935037341e-02,4.366347177848775574e-02,-9.584664536741213658e-03,9.318944844124700921e+00,3.573141486810551548e-01,3.105515587529975807e+00
1.887736812043752765e+00,2.023429179978700893e-02,4.685835995740149362e-02,-1.277955271565495154e-02,9.314148681055156587e+00,3.405275779376498724e-01,3.119904076738609255e+00
1.892694846442724455e+00,2.342917997870074681e-02,4.472843450479233041e-02,-1.916932907348242732e-02,9.342925659472422595e+00,3.213429256594724226e-01,3.117505995203837088e+00
1.897652880841695922e+00,2.023429179978700893e-02,4.472843450479233041e-02,-2.981895633652822258e-02,9.402877697841725890e+00,3.477218225419664299e-01,3.071942446043165464e+00
1.902610915240667611e+00,1.597444089456868943e-02,4.259850905218317413e-02,-4.366347177848775574e-02,9.407673860911270225e+00,3.980815347721822772e-01,3.033573141486810343e+00
1.907568949639639300e+00,8.519701810436635520e-03,4.685835995740149362e-02,-5.857294994675186356e-02,9.338129496402878260e+00,4.844124700239808012e-01,3.117505995203837088e+00
1.912526984038610767e+00,0.000000000000000000e+00,5.111821086261980618e-02,-6.176783812566560145e-02,9.304556354916067917e+00,5.203836930455635335e-01,3.242206235011990234e+00
1.917485018437582456e+00,-8.519701810436635520e-03,4.579339723109691201e-02,-6.176783812566560145e-02,9.323741007194245256e+00,5.419664268585131506e-01,3.338129496402877816e+00
1.922443052836553923e+00,-1.597444089456868943e-02,3.088391906283280072e-02,-6.709265175718849561e-02,9.280575539568344468e+00,5.587529976019184330e-01,3.383693045563548996e+00
1.927401087235525612e+00,-2.129925452609158706e-02,1.384451544195953142e-02,-7.028753993610223350e-02,9.254196642685851515e+00,6.306954436450838974e-01,3.383693045563548996e+00
1.932359121634497079e+00,-2.981895633652822258e-02,1.064962726304579440e-03,-6.922257720979765883e-02,9.208633093525179447e+00,7.074340527577938076e-01,3.378896882494004661e+00
1.937317156033468768e+00,-3.620873269435569836e-02,-9.584664536741213658e-03,-6.176783812566560145e-02,9.213429256594723782e+00,7.577937649880095439e-01,3.316546762589927866e+00
1.942275190432440235e+00,-4.579339723109691201e-02,-1.490947816826411129e-02,-4.898828541001064990e-02,9.285371702637888802e+00,7.290167865707434247e-01,3.290167865707434025e+00
1.947233224831411924e+00,-5.324813631522896940e-02,-1.916932907348242732e-02,-3.940362087326943624e-02,9.330935251798560870e+00,7.074340527577938076e-01,3.268585131894484519e+00
1.952191259230383613e+00,-6.176783812566560145e-02,-2.342917997870074681e-02,-2.981895633652822258e-02,9.357314148681055599e+00,6.978417266187050272e-01,3.206235011990407724e+00
1.957149293629355080e+00,-6.496272630457934627e-02,-2.555910543130990309e-02,-1.916932907348242732e-02,9.378896882494004217e+00,6.834532374100719121e-01,3.127098321342925757e+00
1.962107328028326769e+00,-7.028753993610223350e-02,-1.810436634717784918e-02,-7.454739084132055646e-03,9.366906474820144268e+00,6.954436450839328598e-01,3.035971223021582954e+00
1.967065362427298236e+00,-7.880724174653887248e-02,-6.389776357827475772e-03,6.389776357827475772e-03,9.354916067146282543e+00,6.786570743405275774e-01,3.019184652278177339e+00
1.972023396826269925e+00,-8.732694355697551147e-02,2.129925452609158880e-03,1.703940362087327104e-02,9.386091127098321607e+00,6.187050359712230607e-01,3.023980815347721673e+00
1.976981431225241392e+00,-9.584664536741213658e-02,4.259850905218317760e-03,2.342917997870074681e-02,9.426858513189447564e+00,5.779376498800958828e-01,3.009592326139088669e+00
1.981939465624213081e+00,-1.043663471778487756e-01,7.454739084132055646e-03,2.342917997870074681e-02,9.386091127098321607e+00,5.203836930455635335e-01,2.988009592326139163e+00
1.986897500023184548e+00,-1.128860489882854146e-01,1.597444089456868943e-02,1.916932907348242732e-02,9.350119904076738209e+00,5.011990407673860837e-01,3.000000000000000000e+00
1.991855534422156238e+00,-1.160809371671991524e-01,2.236421725239616520e-02,1.810436634717784918e-02,9.278177458033573188e+00,4.988009592326139163e-01,3.031175059952038175e+00
1.996813568821127927e+00,-1.128860489882854146e-01,2.236421725239616520e-02,2.236421725239616520e-02,9.251798561151078459e+00,4.772182254196642437e-01,3.105515587529975807e+00
2.001771603220099394e+00,-1.075612353567625135e-01,1.916932907348242732e-02,2.555910543130990309e-02,9.285371702637888802e+00,4.196642685851318944e-01,3.160671462829736100e+00
2.006729637619070861e+00,-9.797657082002129980e-02,1.597444089456868943e-02,2.449414270500532495e-02,9.290167865707434913e+00,4.028776978417266119e-01,3.175059952038369104e+00
2.011687672018042772e+00,-8.839190628328008614e-02,1.171458998935037341e-02,2.236421725239616520e-02,9.215827338129496837e+00,4.340527577937650094e-01,3.177458033573141272e+00
2.016645706417014239e+00,-8.093716719914803570e-02,6.389776357827475772e-03,2.662406815761448470e-02,9.175059952038369104e+00,4.604316546762590168e-01,3.179856115107913883e+00
2.021603740815985706e+00,-7.454739084132055993e-02,1.064962726304579440e-03,3.088391906283280072e-02,9.189448441247002108e+00,4.340527577937650094e-01,3.158273381294963933e+00
2.026561775214957173e+00,-6.815761448349308416e-02,-2.129925452609158880e-03,3.301384451544196047e-02,9.230215827338129841e+00,3.621103117505995450e-01,3.196642685851319055e+00
2.031519809613929084e+00,-6.283280085197018305e-02,-6.389776357827475772e-03,3.088391906283280072e-02,9.244604316546762846e+00,3.333333333333333148e-01,3.179856115107913883e+00
2.036477844012900551e+00,-5.857294994675186356e-02,-1.277955271565495154e-02,2.449414270500532495e-02,9.218225419664268117e+00,3.333333333333333148e-01,3.139088729016786594e+00
2.041435878411872018e+00,-5.218317358892438779e-02,-1.490947816826411129e-02,2.236421725239616520e-02,9.213429256594723782e+00,3.381294964028777050e-01,3.052757793764988126e+00
2.046393912810843929e+00,-5.005324813631523151e-02,-1.064962726304579353e-02,2.342917997870074681e-02,9.251798561151078459e+00,2.877697841726618577e-01,2.937649880095923205e+00
2.051351947209815396e+00,-5.005324813631523151e-02,-2.129925452609158880e-03,1.597444089456868943e-02,9.352517985611511264e+00,2.350119904076738708e-01,2.899280575539568527e+00
2.056309981608786863e+00,-5.111821086261980618e-02,1.171458998935037341e-02,4.259850905218317760e-03,9.395683453237410276e+00,2.158273381294963933e-01,2.911270983213429364e+00
2.061268016007758330e+00,-5.537806176783812567e-02,2.236421725239616520e-02,-1.064962726304579353e-02,9.386091127098321607e+00,2.541966426858512929e-01,2.942446043165467540e+00
2.066226050406730241e+00,-6.283280085197018305e-02,2.981895633652822258e-02,-2.342917997870074681e-02,9.318944844124700921e+00,2.925659472422062479e-01,2.952038369304556209e+00
2.071184084805701708e+00,-7.241746538871139671e-02,3.620873269435569836e-02,-3.301384451544196047e-02,9.304556354916067917e+00,3.285371702637889801e-01,2.937649880095923205e+00
2.076142119204673175e+00,-8.093716719914803570e-02,4.579339723109691201e-02,-3.833865814696485463e-02,9.326139088729016535e+00,3.525179856115107646e-01,2.976019184652278327e+00
2.081100153603644642e+00,-8.945686900958466081e-02,4.792332268370606829e-02,-4.685835995740149362e-02,9.278177458033573188e+00,4.196642685851318944e-01,3.076738609112709799e+00
2.086058188002616554e+00,-9.904153354632587447e-02,4.792332268370606829e-02,-5.111821086261980618e-02,9.232613908872901121e+00,5.059952038369304184e-01,3.223021582733812895e+00
2.091016222401588021e+00,-1.043663471778487756e-01,3.940362087326943624e-02,-4.579339723109691201e-02,9.163069544364509156e+00,5.683453237410072134e-01,3.247002398081534569e+00
2.095974256800559488e+00,-1.086261980830670881e-01,3.088391906283280072e-02,-3.727369542066027996e-02,9.160671462829736100e+00,5.587529976019184330e-01,3.211031175059952059e+00
2.100932291199531399e+00,-1.107561235356762513e-01,2.768903088391906284e-02,-3.088391906283280072e-02,9.203836930455635112e+00,5.011990407673860837e-01,3.218225419664268561e+00
2.105890325598502866e+00,-1.086261980830670881e-01,2.236421725239616520e-02,-2.023429179978700893e-02,9.249400479616307180e+00,5.275779376498801465e-01,3.232613908872901565e+00
2.110848359997474333e+00,-1.043663471778487756e-01,1.810436634717784918e-02,-9.584664536741213658e-03,9.244604316546762846e+00,5.155875299760191988e-01,3.211031175059952059e+00
2.115806394396445800e+00,-1.033013844515442009e-01,1.384451544195953142e-02,1.064962726304579440e-03,9.247002398081534125e+00,4.868105515587530241e-01,3.136690647482014427e+00
2.120764428795417711e+00,-1.001064962726304630e-01,1.597444089456868943e-02,1.064962726304579353e-02,9.299760191846523583e+00,4.340527577937650094e-01,3.071942446043165464e+00
2.125722463194389178e+00,-1.043663471778487756e-01,2.023429179978700893e-02,1.277955271565495154e-02,9.333333333333333925e+00,3.980815347721822772e-01,3.026378896882493841e+00
2.130680497593360645e+00,-1.096911608093716767e-01,2.449414270500532495e-02,1.064962726304579353e-02,9.374100719424459882e+00,3.764988009592326046e-01,2.983213429256594829e+00
2.135638531992332556e+00,-1.203407880724174650e-01,2.875399361022364098e-02,6.389776357827475772e-03,9.386091127098321607e+00,3.525179856115107646e-01,2.959232613908872711e+00
2.140596566391304023e+00,-1.309904153354632672e-01,3.514376996805111675e-02,-4.259850905218317760e-03,9.350119904076738209e+00,3.381294964028777050e-01,2.978417266187050494e+00
2.145554600790275490e+00,-1.416400425985090417e-01,4.366347177848775574e-02,-1.490947816826411129e-02,9.306954436450839196e+00,2.877697841726618577e-01,3.014388489208633004e+00
2.150512635189246957e+00,-1.480298189563365174e-01,4.792332268370606829e-02,-2.555910543130990309e-02,9.280575539568344468e+00,2.685851318944844079e-01,3.143884892086330929e+00
2.155470669588218868e+00,-1.533546325878594185e-01,3.940362087326943624e-02,-3.514376996805111675e-02,9.297362110311750527e+00,2.350119904076738708e-01,3.220623501199040728e+00
2.160428703987190335e+00,-1.501597444089456945e-01,3.194888178913737886e-02,-4.579339723109691201e-02,9.287769784172661858e+00,2.374100719424460382e-01,3.254196642685851515e+00
2.165386738386161802e+00,-1.437699680511182188e-01,2.768903088391906284e-02,-5.324813631522896940e-02,9.280575539568344468e+00,2.374100719424460382e-01,3.239808153477218067e+00
2.170344772785133269e+00,-1.320553780617678419e-01,2.768903088391906284e-02,-5.537806176783812567e-02,9.232613908872901121e+00,3.333333333333333148e-01,3.263788968824940184e+00
2.175302807184105180e+00,-1.160809371671991524e-01,2.875399361022364098e-02,-5.005324813631523151e-02,9.187050359712230829e+00,4.076738609112710021e-01,3.376498800959232494e+00
2.180260841583076648e+00,-1.033013844515442009e-01,2.236421725239616520e-02,-4.153354632587859252e-02,9.201438848920863833e+00,3.836930455635491621e-01,3.453237410071942293e+00
2.185218875982048115e+00,-9.584664536741213658e-02,1.277955271565495154e-02,-3.514376996805111675e-02,9.273381294964028854e+00,3.693045563549160470e-01,3.446043165467625791e+00
2.190176910381020026e+00,-8.732694355697551147e-02,-1.064962726304579440e-03,-3.194888178913737886e-02,9.309352517985612252e+00,3.764988009592326046e-01,3.398081534772182444e+00
2.195134944779991493e+00,-7.880724174653887248e-02,-7.454739084132055646e-03,-2.981895633652822258e-02,9.311750599520383531e+00,4.268585131894484519e-01,3.350119904076738653e+00
2.200092979178962960e+00,-7.667731629392970927e-02,-4.259850905218317760e-03,-2.129925452609158706e-02,9.292565947242206192e+00,4.412470023980815115e-01,3.251798561151079348e+00
2.205051013577934427e+00,-7.667731629392970927e-02,-4.259850905218317760e-03,-1.171458998935037341e-02,9.323741007194245256e+00,4.652278177458033515e-01,3.247002398081534569e+00
2.210009047976906338e+00,-8.093716719914803570e-02,-5.324813631522896766e-03,-9.584664536741213658e-03,9.422062350119903229e+00,4.220623501199040617e-01,3.206235011990407724e+00
2.214967082375877805e+00,-9.265175718849839870e-02,-8.519701810436635520e-03,-1.171458998935037341e-02,9.438848920863309289e+00,3.764988009592326046e-01,3.151079136690647431e+00
2.219925116774849272e+00,-1.107561235356762513e-01,-8.519701810436635520e-03,-2.129925452609158706e-02,9.417266187050358894e+00,4.172661870503597270e-01,3.117505995203837088e+00
2.224883151173821183e+00,-1.267305644302449408e-01,-6.389776357827475772e-03,-2.768903088391906284e-02,9.400479616306954611e+00,4.796163069544364665e-01,3.098321342925659305e+00
2.229841185572792650e+00,-1.427050053248136441e-01,0.000000000000000000e+00,-2.875399361022364098e-02,9.383693045563548552e+00,5.059952038369304184e-01,3.105515587529975807e+00
2.234799219971764117e+00,-1.597444089456868943e-01,6.389776357827475772e-03,-2.555910543130990309e-02,9.290167865707434913e+00,4.964028776978417490e-01,3.201438848920863389e+00
2.239757254370735584e+00,-1.735889243876464205e-01,2.129925452609158880e-03,-2.555910543130990309e-02,9.278177458033573188e+00,4.652278177458033515e-01,3.266187050359712352e+00
2.244715288769707495e+00,-1.874334398296059745e-01,-6.389776357827475772e-03,-2.449414270500532495e-02,9.239808153477218511e+00,4.316546762589927866e-01,3.290167865707434025e+00
2.249673323168678962e+00,-1.959531416400425996e-01,-1.490947816826411129e-02,-2.236421725239616520e-02,9.235011990407674176e+00,4.220623501199040617e-01,3.237410071942445899e+00
2.254631357567650429e+00,-1.980830670926517489e-01,-1.810436634717784918e-02,-1.916932907348242732e-02,9.273381294964028854e+00,3.621103117505995450e-01,3.206235011990407724e+00
2.259589391966621896e+00,-1.948881789137380249e-01,-1.703940362087327104e-02,-1.171458998935037341e-02,9.285371702637888802e+00,3.309352517985611475e-01,3.160671462829736100e+00
2.264547426365593807e+00,-1.874334398296059745e-01,-1.171458998935037341e-02,-1.064962726304579440e-03,9.282973621103117523e+00,2.757793764988009655e-01,3.134292565947242259e+00
2.269505460764565274e+00,-1.757188498402555976e-01,-6.389776357827475772e-03,5.324813631522896766e-03,9.299760191846523583e+00,2.374100719424460382e-01,3.110311750599520586e+00
2.274463495163536741e+00,-1.661341853035143701e-01,-3.194888178913737886e-03,1.490947816826411129e-02,9.302158273381294862e+00,2.470023980815347631e-01,3.105515587529975807e+00
2.279421529562508653e+00,-1.565495207667731703e-01,-1.064962726304579440e-03,2.023429179978700893e-02,9.309352517985612252e+00,2.374100719424460382e-01,3.093525179856114971e+00
2.284379563961480120e+00,-1.512247071352502692e-01,2.129925452609158880e-03,2.342917997870074681e-02,9.299760191846523583e+00,2.086330935251798635e-01,3.045563549160671624e+00
2.289337598360451587e+00,-1.480298189563365174e-01,9.584664536741213658e-03,2.662406815761448470e-02,9.302158273381294862e+00,2.014388489208633060e-01,3.019184652278177339e+00
2.294295632759423054e+00,-1.437699680511182188e-01,1.703940362087327104e-02,2.768903088391906284e-02,9.333333333333333925e+00,1.750599520383692986e-01,3.002398081534772167e+00
2.299253667158394965e+00,-1.480298189563365174e-01,2.129925452609158706e-02,2.555910543130990309e-02,9.326139088729016535e+00,1.414868105515587615e-01,3.031175059952038175e+00
2.304211701557366432e+00,-1.544195953141639932e-01,2.555910543130990309e-02,1.490947816826411129e-02,9.354916067146282543e+00,1.390887290167865664e-01,3.016786570743405171e+00
2.309169735956337899e+00,-1.597444089456868943e-01,2.981895633652822258e-02,6.389776357827475772e-03,9.345323741007193874e+00,1.175059952038369354e-01,3.014388489208633004e+00
2.314127770355309810e+00,-1.661341853035143701e-01,3.407880724174654208e-02,-2.129925452609158880e-03,9.299760191846523583e+00,1.414868105515587615e-01,3.083932853717026301e+00
2.319085804754281277e+00,-1.725239616613418459e-01,4.153354632587859252e-02,-1.171458998935037341e-02,9.292565947242206192e+00,1.846522781774580235e-01,3.143884892086330929e+00
2.324043839153252744e+00,-1.746538871139510229e-01,4.898828541001064990e-02,-1.703940362087327104e-02,9.297362110311750527e+00,1.966426858513189435e-01,3.242206235011990234e+00
2.329001873552224211e+00,-1.746538871139510229e-01,4.898828541001064990e-02,-2.129925452609158706e-02,9.244604316546762846e+00,2.158273381294963933e-01,3.333333333333333481e+00
2.333959907951196122e+00,-1.799787007454738963e-01,4.472843450479233041e-02,-2.236421725239616520e-02,9.182254196642686495e+00,2.278177458033573133e-01,3.378896882494004661e+00
2.338917942350167589e+00,-1.789137380191693216e-01,4.046858359957401785e-02,-2.662406815761448470e-02,9.151079136690647431e+00,2.541966426858512929e-01,3.383693045563548996e+00
2.343875976749139056e+00,-1.799787007454738963e-01,3.407880724174654208e-02,-2.768903088391906284e-02,9.122302158273381423e+00,3.021582733812949728e-01,3.448441247002397958e+00
2.348834011148110523e+00,-1.831735889243876481e-01,2.768903088391906284e-02,-2.449414270500532495e-02,9.112709832134292753e+00,3.333333333333333148e-01,3.486810551558753080e+00
2.353792045547082434e+00,-1.853035143769967974e-01,1.490947816826411129e-02,-2.129925452609158706e-02,9.139088729016785706e+00,3.525179856115107646e-01,3.491606714628297414e+00
2.358750079946053901e+00,-1.906283280085196985e-01,8.519701810436635520e-03,-2.236421725239616520e-02,9.122302158273381423e+00,3.501199040767385973e-01,3.455635491606714460e+00
2.363708114345025368e+00,-1.980830670926517489e-01,2.129925452609158880e-03,-2.342917997870074681e-02,9.110311750599519698e+00,3.764988009592326046e-01,3.402877697841726778e+00
2.368666148743997280e+00,-2.097976570820021258e-01,-5.324813631522896766e-03,-2.875399361022364098e-02,9.081534772182253690e+00,3.860911270983213295e-01,3.364508393285371657e+00
2.373624183142968747e+00,-2.236421725239616520e-01,-9.584664536741213658e-03,-3.407880724174654208e-02,9.122302158273381423e+00,3.717026378896882699e-01,3.321342925659472201e+00
2.378582217541940214e+00,-2.406815761448349300e-01,-8.519701810436635520e-03,-4.259850905218317413e-02,9.203836930455635112e+00,3.764988009592326046e-01,3.326139088729016979e+00
2.383540251940911681e+00,-2.555910543130990309e-01,-7.454739084132055646e-03,-5.644302449414270728e-02,9.199040767386090778e+00,3.956834532374100544e-01,3.330935251798561314e+00
2.388498286339883592e+00,-2.736954206602769113e-01,-8.519701810436635520e-03,-6.922257720979765883e-02,9.153477218225420486e+00,4.532374100719424592e-01,3.335731414868105649e+00
2.393456320738855059e+00,-2.832800851970180833e-01,-6.389776357827475772e-03,-7.561235356762513460e-02,9.148681055155876152e+00,4.748201438848920763e-01,3.338129496402877816e+00
2.398414355137826526e+00,-2.907348242811501615e-01,-5.324813631522896766e-03,-8.200212992545261037e-02,9.131894484412470092e+00,4.556354916067146266e-01,3.362110311750599489e+00
2.403372389536798437e+00,-2.949946751863684602e-01,-6.389776357827475772e-03,-8.839190628328008614e-02,9.136690647482014427e+00,4.292565947242206192e-01,3.390887290167865498e+00
2.408330423935769904e+00,-2.960596379126730349e-01,-8.519701810436635520e-03,-9.584664536741213658e-02,9.105515587529975363e+00,4.220623501199040617e-01,3.443645083932853623e+00
2.413288458334741371e+00,-2.928647497337593109e-01,-1.916932907348242732e-02,-1.043663471778487756e-01,9.071942446043165020e+00,4.676258992805755188e-01,3.486810551558753080e+00
2.418246492733712838e+00,-2.864749733759318628e-01,-2.342917997870074681e-02,-1.107561235356762513e-01,9.071942446043165020e+00,5.011990407673860837e-01,3.429256594724220619e+00
2.423204527132684749e+00,-2.800851970181043593e-01,-2.342917997870074681e-02,-1.128860489882854146e-01,9.028776978417266008e+00,5.131894484412470314e-01,3.414868105515587615e+00
2.428162561531656216e+00,-2.705005324813631318e-01,-2.236421725239616520e-02,-1.139510117145899892e-01,9.062350119904076351e+00,5.371702637889688159e-01,3.424460431654676285e+00
2.433120595930627683e+00,-2.587859424920127549e-01,-2.449414270500532495e-02,-1.139510117145899892e-01,9.103117505995204084e+00,5.515587529976019310e-01,3.453237410071942293e+00
2.438078630329599150e+00,-2.481363152289669805e-01,-2.662406815761448470e-02,-1.139510117145899892e-01,9.059952038369305072e+00,5.323741007194244812e-01,3.443645083932853623e+00
2.443036664728571061e+00,-2.342917997870074542e-01,-2.555910543130990309e-02,-1.160809371671991524e-01,9.045563549160672068e+00,5.371702637889688159e-01,3.381294964028776828e+00
2.447994699127542528e+00,-2.279020234291799785e-01,-2.768903088391906284e-02,-1.214057507987220397e-01,9.100719424460431028e+00,5.635491606714628787e-01,3.318944844124700033e+00
2.452952733526513995e+00,-2.225772097976570774e-01,-2.236421725239616520e-02,-1.246006389776357776e-01,9.124700239808152702e+00,6.426858513189448452e-01,3.287769784172661858e+00
2.457910767925485906e+00,-2.183173588924387509e-01,-1.171458998935037341e-02,-1.288604898828540901e-01,9.098321342925659749e+00,6.498800959232613472e-01,3.302158273381294862e+00
2.462868802324457373e+00,-2.225772097976570774e-01,-1.064962726304579353e-02,-1.384451544195953177e-01,9.095923261390886694e+00,6.378896882494005105e-01,3.381294964028776828e+00
2.467826836723428841e+00,-2.321618743343983049e-01,-1.597444089456868943e-02,-1.469648562300319428e-01,9.110311750599519698e+00,6.330935251798560648e-01,3.357314148681055155e+00
2.472784871122400308e+00,-2.470713525026624058e-01,-2.342917997870074681e-02,-1.629392971246006461e-01,9.131894484412470092e+00,6.762589928057554101e-01,3.263788968824940184e+00
2.477742905521372219e+00,-2.598509052183173851e-01,-2.023429179978700893e-02,-1.778487752928647470e-01,9.115107913669064033e+00,7.170263788968824770e-01,3.211031175059952059e+00
2.482700939920343686e+00,-2.673056443024494078e-01,-1.490947816826411129e-02,-1.874334398296059745e-01,9.124700239808152702e+00,7.505995203836930418e-01,3.275779376498801021e+00
2.487658974319315153e+00,-2.747603833865814860e-01,-7.454739084132055646e-03,-1.916932907348242732e-01,9.141486810551558762e+00,7.458033573141487071e-01,3.371702637889688159e+00
2.492617008718287064e+00,-2.790202342917997846e-01,-6.389776357827475772e-03,-1.970181043663471743e-01,9.091127098321342359e+00,7.505995203836930418e-01,3.441247002398081456e+00
2.497575043117258531e+00,-2.790202342917997846e-01,-1.277955271565495154e-02,-2.012779552715655007e-01,9.028776978417266008e+00,8.105515587529975585e-01,3.489208633093525247e+00
2.502533077516229998e+00,-2.736954206602769113e-01,-1.916932907348242732e-02,-1.991480298189563236e-01,8.968824940047960936e+00,8.729016786570743536e-01,3.470023980815347908e+00
2.507491111915201465e+00,-2.694355697550585571e-01,-2.555910543130990309e-02,-1.916932907348242732e-01,8.956834532374100988e+00,8.417266187050359560e-01,3.474820143884892243e+00
2.512449146314173376e+00,-2.619808306709265344e-01,-3.088391906283280072e-02,-1.874334398296059745e-01,8.990407673860911331e+00,7.985611510791367218e-01,3.450839328537170125e+00
2.517407180713144843e+00,-2.470713525026624058e-01,-3.620873269435569836e-02,-1.863684771033013721e-01,9.038369304556354678e+00,7.865707434052757741e-01,3.400479616306954611e+00
2.522365215112116310e+00,-2.310969116080937302e-01,-4.153354632587859252e-02,-1.863684771033013721e-01,9.055155875299760737e+00,7.601918465227818222e-01,3.306954436450839196e+00
2.527323249511087777e+00,-2.119275825346112752e-01,-3.940362087326943624e-02,-1.842385516506922227e-01,9.110311750599519698e+00,7.338129496402877594e-01,3.215827338129496393e+00
2.532281283910059688e+00,-1.927582534611288478e-01,-3.301384451544196047e-02,-1.789137380191693216e-01,9.189448441247002108e+00,6.954436450839328598e-01,3.057553956834532460e+00
2.537239318309031155e+00,-1.799787007454738963e-01,-2.023429179978700893e-02,-1.778487752928647470e-01,9.206235011990408168e+00,7.050359712230215292e-01,3.050359712230215958e+00
2.542197352708002622e+00,-1.618743343982960714e-01,-1.171458998935037341e-02,-1.821086261980830734e-01,9.182254196642686495e+00,7.386091127098320941e-01,3.110311750599520586e+00
2.547155387106974533e+00,-1.416400425985090417e-01,-5.324813631522896766e-03,-1.853035143769967974e-01,9.213429256594723782e+00,7.505995203836930418e-01,3.023980815347721673e+00
2.552113421505946000e+00,-1.352502662406815659e-01,7.454739084132055646e-03,-1.842385516506922227e-01,9.225419664268585507e+00,8.513189448441247364e-01,3.093525179856114971e+00
2.557071455904917467e+00,-1.246006389776357776e-01,1.810436634717784918e-02,-1.853035143769967974e-01,9.194244604316546443e+00,1.002398081534772167e+00,3.088729016786570636e+00
2.562029490303888934e+00,-1.246006389776357776e-01,2.768903088391906284e-02,-1.821086261980830734e-01,9.191846522781775164e+00,1.047961630695443569e+00,3.203836930455635557e+00
2.566987524702860846e+00,-1.246006389776357776e-01,2.981895633652822258e-02,-1.746538871139510229e-01,9.141486810551558762e+00,1.115107913669064699e+00,3.251798561151079348e+00
2.571945559101832313e+00,-1.309904153354632672e-01,2.555910543130990309e-02,-1.661341853035143701e-01,9.100719424460431028e+00,1.191846522781774498e+00,3.326139088729016979e+00
2.576903593500803780e+00,-1.363152289669861683e-01,2.129925452609158706e-02,-1.586794462193823196e-01,9.035971223021583398e+00,1.232613908872901787e+00,3.371702637889688159e+00
2.581861627899775247e+00,-1.427050053248136441e-01,2.023429179978700893e-02,-1.469648562300319428e-01,9.023980815347721673e+00,1.282973621103117523e+00,3.402877697841726778e+00
2.586819662298747158e+00,-1.490947816826411199e-01,1.171458998935037341e-02,-1.277955271565495154e-01,9.071942446043165020e+00,1.294964028776978360e+00,3.441247002398081456e+00
2.591777696697718625e+00,-1.512247071352502692e-01,2.129925452609158880e-03,-1.011714589989350377e-01,9.124700239808152702e+00,1.292565947242206192e+00,3.304556354916067029e+00
2.596735731096690092e+00,-1.533546325878594185e-01,-1.064962726304579440e-03,-8.200212992545261037e-02,9.155875299760191766e+00,1.282973621103117523e+00,3.270983213429256686e+00
2.601693765495662003e+00,-1.522896698615548439e-01,1.064962726304579440e-03,-6.283280085197018305e-02,9.136690647482014427e+00,1.297362110311750527e+00,3.179856115107913883e+00
2.606651799894633470e+00,-1.597444089456868943e-01,0.000000000000000000e+00,-3.833865814696485463e-02,9.163069544364509156e+00,1.287769784172661858e+00,3.163069544364508268e+00
2.611609834293604937e+00,-1.629392971246006461e-01,-1.064962726304579440e-03,-1.490947816826411129e-02,9.218225419664268117e+00,1.151079136690647431e+00,3.026378896882493841e+00
2.616567868692576404e+00,-1.671991480298189447e-01,3.194888178913737886e-03,-2.129925452609158880e-03,9.321342925659472201e+00,9.688249400479616025e-01,2.937649880095923205e+00
2.621525903091548315e+00,-1.703940362087326965e-01,1.703940362087327104e-02,2.129925452609158880e-03,9.381294964028777272e+00,8.369304556354916214e-01,2.863309352517985573e+00
2.626483937490519782e+00,-1.703940362087326965e-01,2.768903088391906284e-02,2.129925452609158880e-03,9.340527577937649539e+00,8.465227817745802907e-01,2.844124700239808234e+00
2.631441971889491249e+00,-1.714589989350372712e-01,3.940362087326943624e-02,1.064962726304579440e-03,9.316546762589927866e+00,8.201438848920863389e-01,2.875299760191846410e+00
2.636400006288463160e+00,-1.671991480298189447e-01,5.111821086261980618e-02,4.259850905218317760e-03,9.342925659472422595e+00,7.194244604316546443e-01,2.791366906474820109e+00
2.641358040687434627e+00,-1.650692225772097954e-01,6.496272630457934627e-02,1.064962726304579440e-03,9.364508393285371213e+00,6.474820143884891799e-01,2.832134292565947398e+00
2.646316075086406094e+00,-1.608093716719914690e-01,8.200212992545261037e-02,-1.064962726304579353e-02,9.354916067146282543e+00,6.450839328537170125e-01,2.858513189448441238e+00
2.651274109485377561e+00,-1.640042598509052207e-01,9.265175718849839870e-02,-2.129925452609158706e-02,9.278177458033573188e+00,7.242206235011990900e-01,2.944844124700239707e+00
2.656232143884349473e+00,-1.597444089456868943e-01,9.904153354632587447e-02,-2.449414270500532495e-02,9.215827338129496837e+00,8.009592326139088891e-01,3.083932853717026301e+00
2.661190178283320940e+00,-1.544195953141639932e-01,1.043663471778487756e-01,-1.703940362087327104e-02,9.182254196642686495e+00,8.441247002398081234e-01,3.134292565947242259e+00
2.666148212682292407e+00,-1.490947816826411199e-01,1.075612353567625135e-01,-1.277955271565495154e-02,9.155875299760191766e+00,8.105515587529975585e-01,3.244604316546762401e+00
2.671106247081263874e+00,-1.395101171458998923e-01,1.075612353567625135e-01,-1.064962726304579353e-02,9.134292565947241371e+00,7.985611510791367218e-01,3.352517985611510820e+00
2.676064281480235785e+00,-1.363152289669861683e-01,1.022364217252396124e-01,-6.389776357827475772e-03,9.095923261390886694e+00,8.105515587529975585e-01,3.443645083932853623e+00
2.681022315879207252e+00,-1.288604898828540901e-01,8.945686900958466081e-02,-2.129925452609158880e-03,9.074340527577938076e+00,8.369304556354916214e-01,3.443645083932853623e+00
2.685980350278178719e+00,-1.214057507987220397e-01,7.774227902023429781e-02,6.389776357827475772e-03,9.095923261390886694e+00,8.057553956834532238e-01,3.407673860911271113e+00
2.690938384677150630e+00,-1.086261980830670881e-01,6.922257720979765883e-02,1.490947816826411129e-02,9.172661870503597825e+00,6.978417266187050272e-01,3.362110311750599489e+00
2.695896419076122097e+00,-9.371671991480298725e-02,6.496272630457934627e-02,1.703940362087327104e-02,9.179856115107913439e+00,6.498800959232613472e-01,3.400479616306954611e+00
2.700854453475093564e+00,-8.519701810436634826e-02,5.431309904153354406e-02,2.023429179978700893e-02,9.165467625899280435e+00,6.187050359712230607e-01,3.424460431654676285e+00
2.705812487874065031e+00,-7.561235356762513460e-02,4.153354632587859252e-02,2.023429179978700893e-02,9.148681055155876152e+00,6.115107913669064477e-01,3.350119904076738653e+00
2.710770522273036942e+00,-6.815761448349308416e-02,3.407880724174654208e-02,2.023429179978700893e-02,9.139088729016785706e+00,6.139088729016786150e-01,3.306954436450839196e+00
2.715728556672008409e+00,-6.709265175718849561e-02,2.875399361022364098e-02,1.810436634717784918e-02,9.153477218225420486e+00,6.282973621103117301e-01,3.273381294964028854e+00
2.720686591070979876e+00,-7.028753993610223350e-02,2.342917997870074681e-02,1.490947816826411129e-02,9.155875299760191766e+00,6.211031175059952281e-01,3.220623501199040728e+00
2.725644625469951787e+00,-7.880724174653887248e-02,1.916932907348242732e-02,1.064962726304579353e-02,9.141486810551558762e+00,5.875299760191846632e-01,3.203836930455635557e+00
2.730602659868923254e+00,-8.945686900958466081e-02,1.703940362087327104e-02,-1.064962726304579440e-03,9.201438848920863833e+00,5.347721822541966485e-01,3.112709832134292753e+00
2.735560694267894721e+00,-9.904153354632587447e-02,2.129925452609158706e-02,-1.277955271565495154e-02,9.249400479616307180e+00,5.131894484412470314e-01,3.052757793764988126e+00
2.740518728666866188e+00,-1.139510117145899892e-01,2.768903088391906284e-02,-2.449414270500532495e-02,9.263788968824940184e+00,5.395683453237409832e-01,3.043165467625899456e+00
2.745476763065838099e+00,-1.267305644302449408e-01,3.407880724174654208e-02,-3.514376996805111675e-02,9.230215827338129841e+00,5.299760191846523139e-01,3.045563549160671624e+00
2.750434797464809566e+00,-1.331203407880724165e-01,4.259850905218317413e-02,-4.579339723109691201e-02,9.235011990407674176e+00,5.035971223021582510e-01,3.002398081534772167e+00
2.755392831863781034e+00,-1.416400425985090417e-01,5.218317358892438779e-02,-5.324813631522896940e-02,9.287769784172661858e+00,4.892086330935251914e-01,3.045563549160671624e+00
2.760350866262752501e+00,-1.448349307774227934e-01,6.176783812566560145e-02,-6.496272630457934627e-02,9.282973621103117523e+00,4.868105515587530241e-01,3.124700239808153590e+00
2.765308900661724412e+00,-1.427050053248136441e-01,6.283280085197018305e-02,-7.348242811501597138e-02,9.208633093525179447e+00,5.323741007194244812e-01,3.199040767386091222e+00
2.770266935060695879e+00,-1.384451544195953177e-01,5.963791267305644517e-02,-7.561235356762513460e-02,9.148681055155876152e+00,5.635491606714628787e-01,3.230215827338129397e+00
2.775224969459667346e+00,-1.299254526091586925e-01,5.644302449414270728e-02,-7.454739084132055993e-02,9.139088729016785706e+00,5.827338129496403285e-01,3.278177458033573188e+00
2.780183003858639257e+00,-1.214057507987220397e-01,5.005324813631523151e-02,-7.135250266240682204e-02,9.165467625899280435e+00,5.683453237410072134e-01,3.335731414868105649e+00
2.785141038257610724e+00,-1.096911608093716767e-01,4.259850905218317413e-02,-7.135250266240682204e-02,9.201438848920863833e+00,5.659472422062350461e-01,3.350119904076738653e+00
2.790099072656582191e+00,-1.001064962726304630e-01,3.301384451544196047e-02,-6.602768903088392094e-02,9.213429256594723782e+00,5.827338129496403285e-01,3.350119904076738653e+00
2.795057107055553658e+00,-8.945686900958466081e-02,2.768903088391906284e-02,-6.176783812566560145e-02,9.187050359712230829e+00,5.707434052757793808e-01,3.292565947242206192e+00
2.800015141454525569e+00,-7.774227902023429781e-02,2.555910543130990309e-02,-5.537806176783812567e-02,9.170263788968824770e+00,5.611510791366906004e-01,3.225419664268585063e+00
2.804973175853497036e+00,-6.815761448349308416e-02,2.129925452609158706e-02,-5.111821086261980618e-02,9.211031175059952503e+00,5.323741007194244812e-01,3.187050359712230385e+00
2.809931210252468503e+00,-6.389776357827475772e-02,1.703940362087327104e-02,-4.898828541001064990e-02,9.275779376498800133e+00,5.227817745803357008e-01,3.119904076738609255e+00
2.814889244651440414e+00,-6.070287539936101984e-02,1.810436634717784918e-02,-5.005324813631523151e-02,9.321342925659472201e+00,5.179856115107913661e-01,3.026378896882493841e+00
2.819847279050411881e+00,-6.176783812566560145e-02,2.768903088391906284e-02,-5.218317358892438779e-02,9.323741007194245256e+00,5.755395683453237154e-01,2.992805755395683498e+00
2.824805313449383348e+00,-6.815761448349308416e-02,3.301384451544196047e-02,-5.005324813631523151e-02,9.299760191846523583e+00,6.115107913669064477e-01,2.997601918465227833e+00
2.829763347848354815e+00,-7.348242811501597138e-02,3.940362087326943624e-02,-4.792332268370606829e-02,9.321342925659472201e+00,6.187050359712230607e-01,2.985611510791366996e+00
2.834721382247326726e+00,-7.987220447284344715e-02,4.792332268370606829e-02,-4.792332268370606829e-02,9.357314148681055599e+00,5.515587529976019310e-01,2.997601918465227833e+00
2.839679416646298193e+00,-8.626198083067092293e-02,5.111821086261980618e-02,-5.431309904153354406e-02,9.390887290167865942e+00,5.683453237410072134e-01,3.016786570743405171e+00
2.844637451045269660e+00,-9.158679446219382403e-02,5.750798722044728195e-02,-5.857294994675186356e-02,9.347721822541966930e+00,6.258992805755395628e-01,3.091127098321342803e+00
2.849595485444241127e+00,-8.945686900958466081e-02,6.283280085197018305e-02,-5.431309904153354406e-02,9.237410071942445455e+00,6.666666666666666297e-01,3.175059952038369104e+00
2.854553519843213039e+00,-9.052183173588924936e-02,6.389776357827475772e-02,-4.259850905218317413e-02,9.239808153477218511e+00,6.786570743405275774e-01,3.239808153477218067e+00
2.859511554242184506e+00,-9.158679446219382403e-02,6.176783812566560145e-02,-3.301384451544196047e-02,9.273381294964028854e+00,6.282973621103117301e-01,3.237410071942445899e+00
2.864469588641155973e+00,-9.158679446219382403e-02,5.750798722044728195e-02,-2.981895633652822258e-02,9.290167865707434913e+00,6.019184652278177783e-01,3.270983213429256686e+00
2.869427623040127884e+00,-9.265175718849839870e-02,5.537806176783812567e-02,-2.662406815761448470e-02,9.297362110311750527e+00,6.330935251798560648e-01,3.275779376498801021e+00
2.874385657439099351e+00,-9.371671991480298725e-02,5.537806176783812567e-02,-2.023429179978700893e-02,9.266187050359711463e+00,6.211031175059952281e-01,3.232613908872901565e+00
2.879343691838070818e+00,-9.052183173588924936e-02,6.283280085197018305e-02,-1.171458998935037341e-02,9.328537170263789591e+00,5.659472422062350461e-01,3.225419664268585063e+00
2.884301726237042285e+00,-8.519701810436634826e-02,7.135250266240682204e-02,-1.064962726304579353e-02,9.362110311750599934e+00,5.203836930455635335e-01,3.263788968824940184e+00
2.889259760636014196e+00,-8.626198083067092293e-02,7.454739084132055993e-02,-1.490947816826411129e-02,9.350119904076738209e+00,5.515587529976019310e-01,3.330935251798561314e+00
2.894217795034985663e+00,-8.839190628328008614e-02,7.135250266240682204e-02,-2.129925452609158706e-02,9.290167865707434913e+00,6.115107913669064477e-01,3.410071942446043280e+00
2.899175829433957130e+00,-9.371671991480298725e-02,6.709265175718849561e-02,-2.129925452609158706e-02,9.263788968824940184e+00,6.426858513189448452e-01,3.453237410071942293e+00
2.904133863832929041e+00,-9.797657082002129980e-02,5.857294994675186356e-02,-2.129925452609158706e-02,9.282973621103117523e+00,6.426858513189448452e-01,3.467625899280575741e+00
2.909091898231900508e+00,-1.001064962726304630e-01,5.644302449414270728e-02,-1.916932907348242732e-02,9.273381294964028854e+00,6.450839328537170125e-01,3.494004796163069582e+00
2.914049932630871975e+00,-1.043663471778487756e-01,5.111821086261980618e-02,-1.916932907348242732e-02,9.263788968824940184e+00,7.026378896882493619e-01,3.558752997601918544e+00
2.919007967029843442e+00,-1.064962726304579388e-01,4.366347177848775574e-02,-1.490947816826411129e-02,9.266187050359711463e+00,7.290167865707434247e-01,3.522781774580335590e+00
2.923966001428815353e+00,-1.064962726304579388e-01,3.727369542066027996e-02,-2.129925452609158880e-03,9.323741007194245256e+00,6.786570743405275774e-01,3.462829736211030962e+00
2.928924035827786820e+00,-1.043663471778487756e-01,3.833865814696485463e-02,8.519701810436635520e-03,9.333333333333333925e+00,6.235011990407673954e-01,3.412470023980815448e+00
2.933882070226758287e+00,-9.904153354632587447e-02,4.579339723109691201e-02,1.490947816826411129e-02,9.323741007194245256e+00,5.611510791366906004e-01,3.438848920863309289e+00
2.938840104625729754e+00,-9.478168264110756192e-02,4.898828541001064990e-02,2.662406815761448470e-02,9.330935251798560870e+00,5.515587529976019310e-01,3.450839328537170125e+00
2.943798139024701666e+00,-8.732694355697551147e-02,4.898828541001064990e-02,3.620873269435569836e-02,9.297362110311750527e+00,5.395683453237409832e-01,3.400479616306954611e+00
2.948756173423673133e+00,-7.987220447284344715e-02,5.324813631522896940e-02,4.046858359957401785e-02,9.273381294964028854e+00,4.892086330935251914e-01,3.326139088729016979e+00
2.953714207822644600e+00,-7.667731629392970927e-02,5.857294994675186356e-02,4.472843450479233041e-02,9.306954436450839196e+00,4.652278177458033515e-01,3.309352517985611364e+00
2.958672242221616511e+00,-7.241746538871139671e-02,6.496272630457934627e-02,4.579339723109691201e-02,9.328537170263789591e+00,4.772182254196642437e-01,3.354916067146282987e+00
2.963630276620587978e+00,-7.241746538871139671e-02,6.602768903088392094e-02,4.579339723109691201e-02,9.285371702637888802e+00,4.724220623501199090e-01,3.366906474820143824e+00
2.968588311019559445e+00,-7.880724174653887248e-02,6.709265175718849561e-02,4.366347177848775574e-02,9.261390887290167129e+00,4.412470023980815115e-01,3.388489208633093330e+00
2.973546345418530912e+00,-8.839190628328008614e-02,6.602768903088392094e-02,3.727369542066027996e-02,9.223021582733812451e+00,4.340527577937650094e-01,3.386091127098321163e+00
2.978504379817502823e+00,-9.904153354632587447e-02,5.963791267305644517e-02,2.555910543130990309e-02,9.206235011990408168e+00,4.364508393285371768e-01,3.434052757793764954e+00
2.983462414216474290e+00,-1.107561235356762513e-01,5.218317358892438779e-02,1.597444089456868943e-02,9.223021582733812451e+00,4.220623501199040617e-01,3.453237410071942293e+00
2.988420448615445757e+00,-1.203407880724174650e-01,4.579339723109691201e-02,8.519701810436635520e-03,9.249400479616307180e+00,4.052757793764987793e-01,3.441247002398081456e+00
2.993378483014417668e+00,-1.277955271565495154e-01,4.259850905218317413e-02,0.000000000000000000e+00,9.263788968824940184e+00,4.076738609112710021e-01,3.462829736211030962e+00
2.998336517413389135e+00,-1.341853035143769912e-01,4.153354632587859252e-02,-6.389776357827475772e-03,9.232613908872901121e+00,4.364508393285371768e-01,3.503597122302158251e+00
3.003294551812360602e+00,-1.299254526091586925e-01,3.514376996805111675e-02,-1.064962726304579353e-02,9.213429256594723782e+00,4.292565947242206192e-01,3.527577937649879924e+00
3.008252586211332069e+00,-1.288604898828540901e-01,3.301384451544196047e-02,-8.519701810436635520e-03,9.213429256594723782e+00,3.884892086330935523e-01,3.498800959232613916e+00
3.013210620610303980e+00,-1.246006389776357776e-01,3.088391906283280072e-02,-1.064962726304579353e-02,9.230215827338129841e+00,3.453237410071942626e-01,3.503597122302158251e+00
3.018168655009275447e+00,-1.182108626198083018e-01,2.768903088391906284e-02,-1.597444089456868943e-02,9.249400479616307180e+00,3.189448441247002553e-01,3.539568345323741205e+00
3.023126689408246914e+00,-1.075612353567625135e-01,2.342917997870074681e-02,-1.703940362087327104e-02,9.266187050359711463e+00,3.381294964028777050e-01,3.505995203836930418e+00
3.028084723807218381e+00,-1.022364217252396124e-01,2.555910543130990309e-02,-2.023429179978700893e-02,9.247002398081534125e+00,3.477218225419664299e-01,3.429256594724220619e+00
3.033042758206190292e+00,-9.478168264110756192e-02,3.088391906283280072e-02,-2.662406815761448470e-02,9.261390887290167129e+00,3.477218225419664299e-01,3.443645083932853623e+00
3.038000792605161759e+00,-9.584664536741213658e-02,3.727369542066027996e-02,-3.301384451544196047e-02,9.316546762589927866e+00,3.117505995203836977e-01,3.467625899280575741e+00
3.042958827004133227e+00,-9.158679446219382403e-02,4.046858359957401785e-02,-4.366347177848775574e-02,9.330935251798560870e+00,2.757793764988009655e-01,3.515587529976019088e+00
3.047916861403105138e+00,-8.626198083067092293e-02,4.046858359957401785e-02,-5.857294994675186356e-02,9.275779376498800133e+00,2.685851318944844079e-01,3.551558752997602042e+00
3.052874895802076605e+00,-8.093716719914803570e-02,3.727369542066027996e-02,-6.922257720979765883e-02,9.218225419664268117e+00,2.757793764988009655e-01,3.585131894484412385e+00
3.057832930201048072e+00,-7.561235356762513460e-02,3.194888178913737886e-02,-7.987220447284344715e-02,9.206235011990408168e+00,3.213429256594724226e-01,3.647482014388489180e+00
3.062790964600019539e+00,-6.922257720979765883e-02,2.449414270500532495e-02,-8.945686900958466081e-02,9.184652278177457774e+00,3.405275779376498724e-01,3.678657074340527799e+00
3.067748998998991450e+00,-6.283280085197018305e-02,1.277955271565495154e-02,-9.691160809371672513e-02,9.223021582733812451e+00,3.549160671462829875e-01,3.676258992805755188e+00
3.072707033397962917e+00,-5.857294994675186356e-02,4.259850905218317760e-03,-1.033013844515442009e-01,9.297362110311750527e+00,3.669064748201438797e-01,3.635491606714628343e+00
3.077665067796934384e+00,-5.218317358892438779e-02,-2.129925452609158880e-03,-1.075612353567625135e-01,9.266187050359711463e+00,4.172661870503597270e-01,3.587529976019184552e+00
3.082623102195906295e+00,-4.685835995740149362e-02,1.064962726304579440e-03,-1.086261980830670881e-01,9.220623501199041172e+00,4.628297362110311841e-01,3.570743405275779381e+00
3.087581136594877762e+00,-4.046858359957401785e-02,4.259850905218317760e-03,-1.033013844515442009e-01,9.196642685851319499e+00,4.964028776978417490e-01,3.558752997601918544e+00
3.092539170993849229e+00,-3.620873269435569836e-02,3.194888178913737886e-03,-9.797657082002129980e-02,9.201438848920863833e+00,5.227817745803357008e-01,3.556354916067146377e+00
3.097497205392820696e+00,-3.833865814696485463e-02,1.064962726304579440e-03,-9.691160809371672513e-02,9.201438848920863833e+00,5.491606714628297636e-01,3.556354916067146377e+00
3.102455239791792607e+00,-4.366347177848775574e-02,-1.064962726304579440e-03,-9.584664536741213658e-02,9.167865707434053490e+00,5.899280575539568305e-01,3.505995203836930418e+00
3.107413274190764074e+00,-4.898828541001064990e-02,3.194888178913737886e-03,-9.158679446219382403e-02,9.146282973621103096e+00,6.235011990407673954e-01,3.482014388489208745e+00
3.112371308589735541e+00,-5.963791267305644517e-02,6.389776357827475772e-03,-8.732694355697551147e-02,9.184652278177457774e+00,6.306954436450838974e-01,3.486810551558753080e+00
3.117329342988707008e+00,-7.135250266240682204e-02,5.324813631522896766e-03,-8.732694355697551147e-02,9.225419664268585507e+00,6.019184652278177783e-01,3.520383693045563422e+00
3.122287377387678919e+00,-8.519701810436634826e-02,4.259850905218317760e-03,-9.371671991480298725e-02,9.203836930455635112e+00,6.522781774580336256e-01,3.587529976019184552e+00
3.127245411786650386e+00,-9.904153354632587447e-02,-2.129925452609158880e-03,-9.371671991480298725e-02,9.117505995203837088e+00,7.673860911270983243e-01,3.702637889688249473e+00
3.132203446185621853e+00,-1.086261980830670881e-01,-1.064962726304579353e-02,-8.413205537806177359e-02,9.059952038369305072e+00,8.201438848920863389e-01,3.738609112709831983e+00
3.137161480584593765e+00,-1.171458998935037271e-01,-2.555910543130990309e-02,-7.241746538871139671e-02,9.052757793764987682e+00,7.458033573141487071e-01,3.721822541966426812e+00
3.142119514983565232e+00,-1.256656017039403661e-01,-3.833865814696485463e-02,-6.709265175718849561e-02,9.112709832134292753e+00,6.834532374100719121e-01,3.702637889688249473e+00
3.147077549382536699e+00,-1.352502662406815659e-01,-4.579339723109691201e-02,-6.283280085197018305e-02,9.158273381294964821e+00,6.786570743405275774e-01,3.657074340527577849e+00
3.152035583781508166e+00,-1.384451544195953177e-01,-5.750798722044728195e-02,-5.750798722044728195e-02,9.141486810551558762e+00,7.002398081534771945e-01,3.587529976019184552e+00
3.156993618180480077e+00,-1.384451544195953177e-01,-5.750798722044728195e-02,-4.579339723109691201e-02,9.153477218225420486e+00,7.146282973621103096e-01,3.448441247002397958e+00
3.161951652579451544e+00,-1.363152289669861683e-01,-5.111821086261980618e-02,-3.088391906283280072e-02,9.230215827338129841e+00,6.306954436450838974e-01,3.381294964028776828e+00
3.166909686978423011e+00,-1.299254526091586925e-01,-4.366347177848775574e-02,-2.023429179978700893e-02,9.297362110311750527e+00,5.635491606714628787e-01,3.309352517985611364e+00
3.171867721377394922e+00,-1.267305644302449408e-01,-3.514376996805111675e-02,-1.490947816826411129e-02,9.285371702637888802e+00,5.107913669064748641e-01,3.251798561151079348e+00
3.176825755776366389e+00,-1.256656017039403661e-01,-2.555910543130990309e-02,-1.064962726304579353e-02,9.258992805755395850e+00,4.604316546762590168e-01,3.146282973621103096e+00
3.181783790175337856e+00,-1.256656017039403661e-01,-1.277955271565495154e-02,-1.597444089456868943e-02,9.294964028776979248e+00,4.364508393285371768e-01,3.122302158273381423e+00
3.186741824574309323e+00,-1.235356762513312029e-01,-1.064962726304579440e-03,-2.342917997870074681e-02,9.285371702637888802e+00,3.693045563549160470e-01,3.177458033573141272e+00
3.191699858973281234e+00,-1.203407880724174650e-01,5.324813631522896766e-03,-3.514376996805111675e-02,9.263788968824940184e+00,2.805755395683453002e-01,3.232613908872901565e+00
3.196657893372252701e+00,-1.150159744408945639e-01,7.454739084132055646e-03,-4.898828541001064990e-02,9.227817745803356786e+00,2.949640287769784153e-01,3.266187050359712352e+00
3.201615927771224168e+00,-1.054313099041533502e-01,8.519701810436635520e-03,-6.176783812566560145e-02,9.184652278177457774e+00,3.261390887290168128e-01,3.244604316546762401e+00
3.206573962170195635e+00,-9.371671991480298725e-02,1.490947816826411129e-02,-6.922257720979765883e-02,9.182254196642686495e+00,3.836930455635491621e-01,3.273381294964028854e+00
3.211531996569167546e+00,-8.200212992545261037e-02,2.342917997870074681e-02,-7.561235356762513460e-02,9.160671462829736100e+00,4.028776978417266119e-01,3.328537170263789147e+00
3.216490030968139013e+00,-7.241746538871139671e-02,2.662406815761448470e-02,-8.093716719914803570e-02,9.139088729016785706e+00,4.316546762589927866e-01,3.405275779376498946e+00
3.221448065367110480e+00,-5.963791267305644517e-02,2.342917997870074681e-02,-8.626198083067092293e-02,9.103117505995204084e+00,4.532374100719424592e-01,3.438848920863309289e+00
3.226406099766082392e+00,-4.898828541001064990e-02,2.236421725239616520e-02,-8.732694355697551147e-02,9.083932853717026745e+00,5.107913669064748641e-01,3.441247002398081456e+00
3.231364134165053859e+00,-4.046858359957401785e-02,2.129925452609158706e-02,-8.626198083067092293e-02,9.112709832134292753e+00,5.683453237410072134e-01,3.412470023980815448e+00
3.236322168564025326e+00,-2.981895633652822258e-02,2.662406815761448470e-02,-8.306709265175718504e-02,9.107913669064748419e+00,6.642685851318944623e-01,3.422062350119904117e+00
3.241280202962996793e+00,-2.023429179978700893e-02,3.088391906283280072e-02,-7.348242811501597138e-02,9.067146282973620686e+00,7.362110311750599267e-01,3.525179856115107757e+00
3.246238237361968704e+00,-1.810436634717784918e-02,2.662406815761448470e-02,-6.176783812566560145e-02,9.062350119904076351e+00,7.841726618705036067e-01,3.601918465227817556e+00
3.251196271760940171e+00,-2.236421725239616520e-02,1.171458998935037341e-02,-5.005324813631523151e-02,9.074340527577938076e+00,8.105515587529975585e-01,3.601918465227817556e+00
3.256154306159911638e+00,-2.981895633652822258e-02,1.064962726304579440e-03,-4.046858359957401785e-02,9.079136690647482411e+00,7.601918465227818222e-01,3.565947242206235046e+00
3.261112340558883105e+00,-3.727369542066027996e-02,-5.324813631522896766e-03,-3.727369542066027996e-02,9.093525179856115415e+00,7.266187050359712574e-01,3.563549160671462879e+00
3.266070374957855016e+00,-4.579339723109691201e-02,-1.277955271565495154e-02,-3.514376996805111675e-02,9.163069544364509156e+00,6.834532374100719121e-01,3.527577937649879924e+00
3.271028409356826483e+00,-5.005324813631523151e-02,-2.129925452609158706e-02,-3.301384451544196047e-02,9.201438848920863833e+00,6.306954436450838974e-01,3.472422062350120076e+00
3.275986443755797950e+00,-5.431309904153354406e-02,-2.662406815761448470e-02,-2.875399361022364098e-02,9.194244604316546443e+00,6.354916067146283432e-01,3.388489208633093330e+00
3.280944478154769861e+00,-5.857294994675186356e-02,-2.555910543130990309e-02,-2.662406815761448470e-02,9.167865707434053490e+00,6.258992805755395628e-01,3.350119904076738653e+00
3.285902512553741328e+00,-6.176783812566560145e-02,-2.342917997870074681e-02,-2.449414270500532495e-02,9.184652278177457774e+00,5.779376498800958828e-01,3.352517985611510820e+00
3.290860546952712795e+00,-6.709265175718849561e-02,-2.236421725239616520e-02,-2.449414270500532495e-02,9.211031175059952503e+00,5.347721822541966485e-01,3.285371702637889690e+00
3.295818581351684262e+00,-7.561235356762513460e-02,-2.129925452609158706e-02,-2.981895633652822258e-02,9.203836930455635112e+00,5.275779376498801465e-01,3.232613908872901565e+00
3.300776615750656173e+00,-8.306709265175718504e-02,-1.597444089456868943e-02,-3.194888178913737886e-02,9.163069544364509156e+00,5.467625899280575963e-01,3.225419664268585063e+00
3.305734650149627640e+00,-8.945686900958466081e-02,-1.277955271565495154e-02,-3.088391906283280072e-02,9.127098321342925757e+00,5.563549160671462657e-01,3.258992805755395850e+00
3.310692684548599107e+00,-9.584664536741213658e-02,-8.519701810436635520e-03,-3.407880724174654208e-02,9.158273381294964821e+00,5.011990407673860837e-01,3.287769784172661858e+00
3.315650718947571018e+00,-1.043663471778487756e-01,-5.324813631522896766e-03,-4.259850905218317413e-02,9.163069544364509156e+00,4.652278177458033515e-01,3.309352517985611364e+00
3.320608753346542485e+00,-1.107561235356762513e-01,-4.259850905218317760e-03,-5.431309904153354406e-02,9.143884892086331817e+00,4.772182254196642437e-01,3.362110311750599489e+00
3.325566787745513953e+00,-1.139510117145899892e-01,-6.389776357827475772e-03,-6.496272630457934627e-02,9.170263788968824770e+00,4.988009592326139163e-01,3.352517985611510820e+00
3.330524822144485420e+00,-1.096911608093716767e-01,-1.277955271565495154e-02,-6.602768903088392094e-02,9.175059952038369104e+00,5.083932853717025857e-01,3.316546762589927866e+00
3.335482856543457331e+00,-1.001064962726304630e-01,-1.064962726304579353e-02,-6.496272630457934627e-02,9.189448441247002108e+00,4.652278177458033515e-01,3.285371702637889690e+00
3.340440890942428798e+00,-8.732694355697551147e-02,-5.324813631522896766e-03,-6.176783812566560145e-02,9.213429256594723782e+00,4.892086330935251914e-01,3.309352517985611364e+00
3.345398925341400265e+00,-7.348242811501597138e-02,-3.194888178913737886e-03,-5.963791267305644517e-02,9.225419664268585507e+00,5.011990407673860837e-01,3.354916067146282987e+00
3.350356959740371732e+00,-6.176783812566560145e-02,-3.194888178913737886e-03,-5.644302449414270728e-02,9.189448441247002108e+00,5.035971223021582510e-01,3.316546762589927866e+00
